Period,Subject,Group,Profit,TotalProfit,contribution,TimeOKStage1OK,sumContribution,Profit1Own,Profit1Group,Profit1,Cost,ReceivedPoints,Reduction,Profit2
1,1,4,0,25,20,45,35,0,14,14,0,-7,-21,0
1,2,2,17,42,15,25,40,5,16,21,4,0,0,17
1,3,5,0,25,1,40,20,19,8,27,0,-13,-39,0
1,4,1,25.4,50.4,5,33,26,15,10.4,25.4,0,0,0,25.4
1,5,3,20.4,45.4,20,36,56,0,22.4,22.4,2,0,0,20.4
1,6,1,25.4,50.4,5,30,26,15,10.4,25.4,0,0,0,25.4
1,7,5,2,27,5,29,20,15,8,23,18,-1,-3,2
1,8,2,23,48,10,9,40,10,16,26,0,-1,-3,23
1,9,4,14,39,10,40,35,10,14,24,10,0,0,14
1,10,1,29.4,54.4,1,34,26,19,10.4,29.4,0,0,0,29.4
1,11,2,22,47,5,47,40,15,16,31,0,-3,-9,22
1,12,3,22.4,47.4,20,44,56,0,22.4,22.4,0,0,0,22.4
1,13,2,26,51,10,40,40,10,16,26,0,0,0,26
1,14,3,29.4,54.4,10,36,56,10,22.4,32.4,0,-1,-3,29.4
1,15,3,33.4,58.4,6,39,56,14,22.4,36.4,0,-1,-3,33.4
1,16,1,15.4,40.4,15,39,26,5,10.4,15.4,0,0,0,15.4
1,17,5,-2,23,12,44,20,8,8,16,3,-5,-15,-2
1,18,4,34,59,0,43,35,20,14,34,0,0,0,34
1,19,4,20,45,5,36,35,15,14,29,0,-3,-9,20
1,20,5,12,37,2,34,20,18,8,26,2,-4,-12,12
2,1,5,11.6,36.6,20,28,29,0,11.6,11.6,0,0,0,11.6
2,2,2,14.8,56.8,16,18,42,4,16.8,20.8,0,-2,-6,14.8
2,3,2,30.8,55.8,1,11,42,19,16.8,35.8,5,0,0,30.8
2,4,4,27.8,78.2,7,-1,47,13,18.8,31.8,4,0,0,27.8
2,5,3,16,61.4,20,28,40,0,16,16,0,0,0,16
2,6,1,13,63.4,5,-24,40,15,16,31,0,-6,-18,13
2,7,1,12,39,19,27,40,1,16,17,5,0,0,12
2,8,2,21.8,69.8,15,11,42,5,16.8,21.8,0,0,0,21.8
2,9,3,29,68,4,27,40,16,16,32,0,-1,-3,29
2,10,3,29,83.4,1,19,40,19,16,35,0,-2,-6,29
2,11,5,25.6,72.6,6,22,29,14,11.6,25.6,0,0,0,25.6
2,12,4,12.8,60.2,20,26,47,0,18.8,18.8,0,-2,-6,12.8
2,13,2,17.8,68.8,10,27,42,10,16.8,26.8,0,-3,-9,17.8
2,14,3,18,72.4,15,16,40,5,16,21,3,0,0,18
2,15,4,25.8,84.2,10,24,47,10,18.8,28.8,0,-1,-3,25.8
2,16,1,24,64.4,12,23,40,8,16,24,0,0,0,24
2,17,5,26.6,49.6,3,26,29,17,11.6,28.6,2,0,0,26.6
2,18,5,25.6,84.6,0,25,29,20,11.6,31.6,0,-2,-6,25.6
2,19,4,25.8,70.8,10,10,47,10,18.8,28.8,0,-1,-3,25.8
2,20,1,23,60,4,-4,40,16,16,32,3,-2,-6,23
3,1,4,17,53.6,20,28,50,0,20,20,0,-1,-3,17
3,2,3,18.2,75,13,-1,28,7,11.2,18.2,0,0,0,18.2
3,3,4,35,90.8,0,13,50,20,20,40,2,-1,-3,35
3,4,1,32,110.2,10,13,60,10,24,34,2,0,0,32
3,5,2,14.6,76,1,24,19,19,7.6,26.6,0,-4,-12,14.6
3,6,2,19.6,83,5,20,19,15,7.6,22.6,0,-1,-3,19.6
3,7,1,28,67,10,28,60,10,24,34,0,-2,-6,28
3,8,4,22,91.8,15,22,50,5,20,25,0,-1,-3,22
3,9,5,8.8,76.8,7,26,27,13,10.8,23.8,15,0,0,8.8
3,10,3,30.2,113.6,1,12,28,19,11.2,30.2,0,0,0,30.2
3,11,5,10.8,83.4,5,26,27,15,10.8,25.8,0,-5,-15,10.8
3,12,1,24,84.2,20,27,60,0,24,24,0,0,0,24
3,13,5,5.8,74.6,10,-6,27,10,10.8,20.8,0,-5,-15,5.8
3,14,4,24,96.4,15,22,50,5,20,25,1,0,0,24
3,15,2,15.6,99.8,8,22,19,12,7.6,19.6,4,0,0,15.6
3,16,3,17.2,81.6,14,29,28,6,11.2,17.2,0,0,0,17.2
3,17,5,10.8,60.4,5,28,27,15,10.8,25.8,0,-5,-15,10.8
3,18,3,31.2,115.8,0,26,28,20,11.2,31.2,0,0,0,31.2
3,19,1,24,94.8,20,21,60,0,24,24,0,0,0,24
3,20,2,17.6,77.6,5,13,19,15,7.6,22.6,2,-1,-3,17.6
4,1,1,16.2,69.8,20,28,48,0,19.2,19.2,0,-1,-3,16.2
4,2,4,25,100,15,21,50,5,20,25,0,0,0,25
4,3,3,26.6,117.4,0,0,29,20,11.6,31.6,2,-1,-3,26.6
4,4,3,18.6,128.8,10,18,29,10,11.6,21.6,0,-1,-3,18.6
4,5,5,12.2,88.2,15,22,28,5,11.2,16.2,4,0,0,12.2
4,6,1,37.2,120.2,2,16,48,18,19.2,37.2,0,0,0,37.2
4,7,2,9.6,76.6,14,19,39,6,15.6,21.6,12,0,0,9.6
4,8,5,25.2,117,0,26,28,20,11.2,31.2,0,-2,-6,25.2
4,9,1,16.2,93,20,26,48,0,19.2,19.2,0,-1,-3,16.2
4,10,5,24.2,137.8,1,17,28,19,11.2,30.2,0,-2,-6,24.2
4,11,1,31.2,114.6,6,24,48,14,19.2,33.2,2,0,0,31.2
4,12,4,20,104.2,20,26,50,0,20,20,0,0,0,20
4,13,4,30,104.6,10,24,50,10,20,30,0,0,0,30
4,14,3,12.6,109,15,27,29,5,11.6,16.6,1,-1,-3,12.6
4,15,4,35,134.8,5,22,50,15,20,35,0,0,0,35
4,16,5,19.2,100.8,12,24,28,8,11.2,19.2,0,0,0,19.2
4,17,2,18.6,79,8,28,39,12,15.6,27.6,3,-2,-6,18.6
4,18,2,0,115.8,0,28,39,20,15.6,35.6,0,-13,-39,0
4,19,2,18.6,113.4,17,17,39,3,15.6,18.6,0,0,0,18.6
4,20,3,27.6,105.2,4,18,29,16,11.6,27.6,0,0,0,27.6
5,1,2,26,95.8,20,27,65,0,26,26,0,0,0,26
5,2,2,31,131,15,26,65,5,26,31,0,0,0,31
5,3,3,23.6,141,5,27,29,15,11.6,26.6,0,-1,-3,23.6
5,4,4,20.8,149.6,9,19,32,11,12.8,23.8,3,0,0,20.8
5,5,2,33,121.2,10,12,65,10,26,36,0,-1,-3,33
5,6,1,30.8,151,2,20,32,18,12.8,30.8,0,0,0,30.8
5,7,2,25,101.6,20,26,65,0,26,26,1,0,0,25
5,8,3,13.6,130.6,0,24,29,20,11.6,31.6,0,-6,-18,13.6
5,9,1,12.8,105.8,20,28,32,0,12.8,12.8,0,0,0,12.8
5,10,4,21.8,159.6,2,27,32,18,12.8,30.8,0,-3,-9,21.8
5,11,4,23.8,138.4,6,27,32,14,12.8,26.8,0,-1,-3,23.8
5,12,1,32.8,137,0,29,32,20,12.8,32.8,0,0,0,32.8
5,13,1,22.8,127.4,10,28,32,10,12.8,22.8,0,0,0,22.8
5,14,4,16.8,125.8,15,21,32,5,12.8,17.8,1,0,0,16.8
5,15,5,11.8,146.6,12,19,27,8,10.8,18.8,7,0,0,11.8
5,16,5,19.8,120.6,11,27,27,9,10.8,19.8,0,0,0,19.8
5,17,3,13.6,92.6,14,28,29,6,11.6,17.6,4,0,0,13.6
5,18,5,6.8,122.6,0,28,27,20,10.8,30.8,0,-8,-24,6.8
5,19,3,18.6,132,10,24,29,10,11.6,21.6,3,0,0,18.6
5,20,5,17.8,123,4,23,27,16,10.8,26.8,3,-2,-6,17.8
6,1,5,15.2,111,20,28,38,0,15.2,15.2,0,0,0,15.2
6,2,1,16,147,20,27,40,0,16,16,0,0,0,16
6,3,2,22.8,163.8,0,17,7,20,2.8,22.8,0,0,0,22.8
6,4,3,23.8,173.4,8,24,32,12,12.8,24.8,1,0,0,23.8
6,5,4,20,141.2,10,3,30,10,12,22,2,0,0,20
6,6,3,16.8,167.8,1,17,32,19,12.8,31.8,0,-5,-15,16.8
6,7,3,18.8,120.4,13,16,32,7,12.8,19.8,1,0,0,18.8
6,8,2,22.8,153.4,0,25,7,20,2.8,22.8,0,0,0,22.8
6,9,1,24,129.8,0,18,40,20,16,36,0,-4,-12,24
6,10,2,21.8,181.4,1,26,7,19,2.8,21.8,0,0,0,21.8
6,11,2,16.8,155.2,6,26,7,14,2.8,16.8,0,0,0,16.8
6,12,1,26,163,10,26,40,10,16,26,0,0,0,26
6,13,5,21.2,148.6,10,27,38,10,15.2,25.2,4,0,0,21.2
6,14,4,21,146.8,10,26,30,10,12,22,1,0,0,21
6,15,5,27.2,173.8,8,25,38,12,15.2,27.2,0,0,0,27.2
6,16,3,19.8,140.4,10,21,32,10,12.8,22.8,3,0,0,19.8
6,17,1,22,114.6,10,20,40,10,16,26,4,0,0,22
6,18,4,20,142.6,0,27,30,20,12,32,0,-4,-12,20
6,19,4,21,153,10,24,30,10,12,22,1,0,0,21
6,20,5,23.2,146.2,0,20,38,20,15.2,35.2,0,-4,-12,23.2
7,1,1,10,121,20,29,25,0,10,10,0,0,0,10
7,2,3,16.8,163.8,20,24,57,0,22.8,22.8,0,-2,-6,16.8
7,3,3,27.8,191.6,12,27,57,8,22.8,30.8,3,0,0,27.8
7,4,5,17.2,190.6,8,23,18,12,7.2,19.2,2,0,0,17.2
7,5,4,23.6,164.8,9,10,39,11,15.6,26.6,3,0,0,23.6
7,6,2,33.4,201.2,1,14,36,19,14.4,33.4,0,0,0,33.4
7,7,3,27.8,148.2,15,24,57,5,22.8,27.8,0,0,0,27.8
7,8,1,24,177.4,0,29,25,20,10,30,0,-2,-6,24
7,9,5,6.2,136,0,28,18,20,7.2,27.2,0,-7,-21,6.2
7,10,2,14.4,195.8,20,26,36,0,14.4,14.4,0,0,0,14.4
7,11,1,21,176.2,5,18,25,15,10,25,4,0,0,21
7,12,4,14.6,177.6,20,28,39,0,15.6,15.6,1,0,0,14.6
7,13,4,21.6,170.2,10,29,39,10,15.6,25.6,4,0,0,21.6
7,14,2,24.4,171.2,10,27,36,10,14.4,24.4,0,0,0,24.4
7,15,2,29.4,203.2,5,24,36,15,14.4,29.4,0,0,0,29.4
7,16,5,5.2,145.6,10,26,18,10,7.2,17.2,12,0,0,5.2
7,17,1,24,138.6,0,29,25,20,10,30,0,-2,-6,24
7,18,5,6.2,148.8,0,28,18,20,7.2,27.2,0,-7,-21,6.2
7,19,3,29.8,182.8,10,24,57,10,22.8,32.8,0,-1,-3,29.8
7,20,4,11.6,157.8,0,23,39,20,15.6,35.6,0,-8,-24,11.6
8,1,2,13.4,134.4,20,29,41,0,16.4,16.4,0,-1,-3,13.4
8,2,4,10.4,174.2,16,18,26,4,10.4,14.4,4,0,0,10.4
8,3,1,23.4,215,15,21,46,5,18.4,23.4,0,0,0,23.4
8,4,5,17,207.6,0,27,15,20,6,26,0,-3,-9,17
8,5,4,12.4,177.2,0,28,26,20,10.4,30.4,0,-6,-18,12.4
8,6,3,16.8,218,1,24,2,19,0.8,19.8,0,-1,-3,16.8
8,7,3,17.8,166,0,25,2,20,0.8,20.8,3,0,0,17.8
8,8,5,17,194.4,0,28,15,20,6,26,0,-3,-9,17
8,9,3,16.8,152.8,1,27,2,19,0.8,19.8,0,-1,-3,16.8
8,10,1,25.4,221.2,1,29,46,19,18.4,37.4,0,-4,-12,25.4
8,11,2,31.4,207.6,3,26,41,17,16.4,33.4,2,0,0,31.4
8,12,1,18.4,196,19,24,46,1,18.4,19.4,1,0,0,18.4
8,13,4,12.4,182.6,10,28,26,10,10.4,20.4,8,0,0,12.4
8,14,2,23.4,194.6,10,28,41,10,16.4,26.4,0,-1,-3,23.4
8,15,4,12.4,215.6,0,25,26,20,10.4,30.4,0,-6,-18,12.4
8,16,2,28.4,174,8,29,41,12,16.4,28.4,0,0,0,28.4
8,17,5,16,154.6,5,27,15,15,6,21,2,-1,-3,16
8,18,3,17.8,166.6,0,26,2,20,0.8,20.8,0,-1,-3,17.8
8,19,5,11,193.8,10,24,15,10,6,16,5,0,0,11
8,20,1,24.4,182.2,11,22,46,9,18.4,27.4,3,0,0,24.4
9,1,3,10.2,144.6,20,29,33,0,13.2,13.2,0,-1,-3,10.2
9,2,5,19.8,194,15,24,37,5,14.8,19.8,0,0,0,19.8
9,3,3,28.2,243.2,3,27,33,17,13.2,30.2,2,0,0,28.2
9,4,4,4,211.6,10,28,25,10,10,20,1,-5,-15,4
9,5,1,20.2,197.4,9,28,23,11,9.2,20.2,0,0,0,20.2
9,6,1,22.2,240.2,1,27,23,19,9.2,28.2,0,-2,-6,22.2
9,7,2,20.6,186.6,18,22,49,2,19.6,21.6,1,0,0,20.6
9,8,5,24.8,219.2,10,29,37,10,14.8,24.8,0,0,0,24.8
9,9,1,21.2,174,2,18,23,18,9.2,27.2,0,-2,-6,21.2
9,10,2,32.6,253.8,1,28,49,19,19.6,38.6,0,-2,-6,32.6
9,11,5,31.8,239.4,3,28,37,17,14.8,31.8,0,0,0,31.8
9,12,2,18.6,214.6,20,27,49,0,19.6,19.6,1,0,0,18.6
9,13,3,33.2,215.8,0,19,33,20,13.2,33.2,0,0,0,33.2
9,14,3,20.2,214.8,10,25,33,10,13.2,23.2,0,-1,-3,20.2
9,15,4,8,223.6,6,22,25,14,10,24,1,-5,-15,8
9,16,5,25.8,199.8,9,27,37,11,14.8,25.8,0,0,0,25.8
9,17,4,6,160.6,8,23,25,12,10,22,1,-5,-15,6
9,18,4,5,171.6,1,24,25,19,10,29,15,-3,-9,5
9,19,2,29.6,223.4,10,26,49,10,19.6,29.6,0,0,0,29.6
9,20,1,14.2,196.4,11,22,23,9,9.2,18.2,4,0,0,14.2
10,1,1,15,159.6,20,28,45,0,18,18,0,-1,-3,15
10,2,2,17.4,211.4,15,7,31,5,12.4,17.4,0,0,0,17.4
10,3,5,6.2,249.4,2,24,8,18,3.2,21.2,0,-5,-15,6.2
10,4,5,6.2,217.8,0,28,8,20,3.2,23.2,17,0,0,6.2
10,5,1,24,221.4,5,28,45,15,18,33,0,-3,-9,24
10,6,5,12.2,252.4,5,14,8,15,3.2,18.2,0,-2,-6,12.2
10,7,3,23.8,210.4,3,27,32,17,12.8,29.8,0,-2,-6,23.8
10,8,3,24.8,244,8,28,32,12,12.8,24.8,0,0,0,24.8
10,9,2,29.4,203.4,3,21,31,17,12.4,29.4,0,0,0,29.4
10,10,5,0,253.8,1,26,8,19,3.2,22.2,0,-10,-30,0
10,11,2,29.4,268.8,3,29,31,17,12.4,29.4,0,0,0,29.4
10,12,4,24,238.6,0,27,10,20,4,24,0,0,0,24
10,13,4,24,239.8,0,28,10,20,4,24,0,0,0,24
10,14,2,22.4,237.2,10,28,31,10,12.4,22.4,0,0,0,22.4
10,15,3,18.8,242.4,12,26,32,8,12.8,20.8,2,0,0,18.8
10,16,3,23.8,223.6,9,29,32,11,12.8,23.8,0,0,0,23.8
10,17,4,24,184.6,0,25,10,20,4,24,0,0,0,24
10,18,1,26,197.6,0,26,45,20,18,38,3,-3,-9,26
10,19,4,14,237.4,10,23,10,10,4,14,0,0,0,14
10,20,1,10,206.4,20,27,45,0,18,18,5,-1,-3,10
11,1,3,14.8,174.4,20,28,37,0,14.8,14.8,0,0,0,14.8
11,2,4,24.2,235.6,5,28,23,15,9.2,24.2,0,0,0,24.2
11,3,4,23.2,272.6,5,24,23,15,9.2,24.2,1,0,0,23.2
11,4,4,19.2,237,10,27,23,10,9.2,19.2,0,0,0,19.2
11,5,5,18.6,240,7,24,14,13,5.6,18.6,0,0,0,18.6
11,6,1,22.4,274.8,1,26,16,19,6.4,25.4,0,-1,-3,22.4
11,7,2,10,220.4,16,10,35,4,14,18,8,0,0,10
11,8,5,19.6,263.6,6,28,14,14,5.6,19.6,0,0,0,19.6
11,9,2,18,221.4,4,20,35,16,14,30,0,-4,-12,18
11,10,5,24.6,278.4,1,21,14,19,5.6,24.6,0,0,0,24.6
11,11,4,23.2,292,3,27,23,17,9.2,26.2,0,-1,-3,23.2
11,12,1,19.4,258,5,26,16,15,6.4,21.4,2,0,0,19.4
11,13,1,23.4,263.2,0,28,16,20,6.4,26.4,0,-1,-3,23.4
11,14,1,16.4,253.6,10,26,16,10,6.4,16.4,0,0,0,16.4
11,15,2,24,266.4,10,27,35,10,14,24,0,0,0,24
11,16,3,26.8,250.4,8,29,37,12,14.8,26.8,0,0,0,26.8
11,17,2,17,201.6,5,27,35,15,14,29,0,-4,-12,17
11,18,5,25.6,223.2,0,27,14,20,5.6,25.6,0,0,0,25.6
11,19,3,29.8,267.2,5,27,37,15,14.8,29.8,0,0,0,29.8
11,20,3,30.8,237.2,4,22,37,16,14.8,30.8,0,0,0,30.8
12,1,1,13.2,187.6,20,28,33,0,13.2,13.2,0,0,0,13.2
12,2,2,21.8,257.4,3,27,12,17,4.8,21.8,0,0,0,21.8
12,3,2,21.8,294.4,2,27,12,18,4.8,22.8,1,0,0,21.8
12,4,2,18.8,255.8,6,8,12,14,4.8,18.8,0,0,0,18.8
12,5,4,22.2,262.2,5,29,18,15,7.2,22.2,0,0,0,22.2
12,6,2,20.8,295.6,1,22,12,19,4.8,23.8,0,-1,-3,20.8
12,7,3,22.8,243.2,4,22,17,16,6.8,22.8,0,0,0,22.8
12,8,5,30,293.6,4,29,35,16,14,30,0,0,0,30
12,9,3,23.8,245.2,0,24,17,20,6.8,26.8,0,-1,-3,23.8
12,10,5,33,311.4,1,24,35,19,14,33,0,0,0,33
12,11,4,24.2,316.2,3,29,18,17,7.2,24.2,0,0,0,24.2
12,12,5,14,272,20,25,35,0,14,14,0,0,0,14
12,13,1,24.2,287.4,0,28,33,20,13.2,33.2,0,-3,-9,24.2
12,14,4,16.2,269.8,10,28,18,10,7.2,17.2,1,0,0,16.2
12,15,5,24,290.4,10,29,35,10,14,24,0,0,0,24
12,16,1,25.2,275.6,8,29,33,12,13.2,25.2,0,0,0,25.2
12,17,1,25.2,226.8,5,26,33,15,13.2,28.2,3,0,0,25.2
12,18,4,24.2,247.4,0,27,18,20,7.2,27.2,0,-1,-3,24.2
12,19,3,18.8,286,8,21,17,12,6.8,18.8,0,0,0,18.8
12,20,3,20.8,258,5,16,17,15,6.8,21.8,1,0,0,20.8
13,1,4,4.8,192.4,20,28,42,0,16.8,16.8,0,-4,-12,4.8
13,2,4,36.8,294.2,0,26,42,20,16.8,36.8,0,0,0,36.8
13,3,5,16.8,311.2,4,25,52,16,20.8,36.8,2,-6,-18,16.8
13,4,2,20.6,276.4,5,26,14,15,5.6,20.6,0,0,0,20.6
13,5,2,22.6,284.8,3,26,14,17,5.6,22.6,0,0,0,22.6
13,6,1,25.8,321.4,1,25,17,19,6.8,25.8,0,0,0,25.8
13,7,1,3.8,247,13,25,17,7,6.8,13.8,10,0,0,3.8
13,8,1,23.8,317.4,3,28,17,17,6.8,23.8,0,0,0,23.8
13,9,4,18.8,264,12,26,42,8,16.8,24.8,6,0,0,18.8
13,10,2,24.6,336,1,28,14,19,5.6,24.6,0,0,0,24.6
13,11,3,25.4,341.6,3,29,21,17,8.4,25.4,0,0,0,25.4
13,12,5,4.8,276.8,20,26,52,0,20.8,20.8,1,-5,-15,4.8
13,13,1,0,287.4,0,26,17,20,6.8,26.8,0,-10,-30,0
13,14,4,20.8,290.6,10,27,42,10,16.8,26.8,0,-2,-6,20.8
13,15,3,18.4,308.8,10,27,21,10,8.4,18.4,0,0,0,18.4
13,16,5,17.8,293.4,8,26,52,12,20.8,32.8,0,-5,-15,17.8
13,17,3,18.4,245.2,8,22,21,12,8.4,20.4,2,0,0,18.4
13,18,5,-0.2,247.2,20,25,52,0,20.8,20.8,15,-2,-6,-0.2
13,19,2,20.6,306.6,5,21,14,15,5.6,20.6,0,0,0,20.6
13,20,3,22.4,280.4,0,28,21,20,8.4,28.4,0,-2,-6,22.4
14,1,2,20.4,212.8,20,28,51,0,20.4,20.4,0,0,0,20.4
14,2,3,27.2,321.4,0,26,18,20,7.2,27.2,0,0,0,27.2
14,3,3,20.2,331.4,7,26,18,13,7.2,20.2,0,0,0,20.2
14,4,4,24.8,301.2,6,10,42,14,16.8,30.8,0,-2,-6,24.8
14,5,4,10.8,295.6,20,25,42,0,16.8,16.8,6,0,0,10.8
14,6,5,23.4,344.8,1,20,11,19,4.4,23.4,0,0,0,23.4
14,7,2,21.4,268.4,18,28,51,2,20.4,22.4,1,0,0,21.4
14,8,1,22,339.4,2,29,10,18,4,22,0,0,0,22
14,9,4,22.8,286.8,8,27,42,12,16.8,28.8,0,-2,-6,22.8
14,10,5,19.4,355.4,5,29,11,15,4.4,19.4,0,0,0,19.4
14,11,1,21,362.6,3,13,10,17,4,21,0,0,0,21
14,12,5,19.4,296.2,5,29,11,15,4.4,19.4,0,0,0,19.4
14,13,1,24,311.4,0,26,10,20,4,24,0,0,0,24
14,14,3,17.2,307.8,10,28,18,10,7.2,17.2,0,0,0,17.2
14,15,2,32.4,341.2,8,25,51,12,20.4,32.4,0,0,0,32.4
14,16,4,22.8,316.2,8,27,42,12,16.8,28.8,0,-2,-6,22.8
14,17,2,32.4,277.6,5,28,51,15,20.4,35.4,0,-1,-3,32.4
14,18,5,24.4,271.6,0,28,11,20,4.4,24.4,0,0,0,24.4
14,19,1,19,325.6,5,26,10,15,4,19,0,0,0,19
14,20,3,26.2,306.6,1,26,18,19,7.2,26.2,0,0,0,26.2
15,1,5,20.4,233.2,20,28,51,0,20.4,20.4,0,0,0,20.4
15,2,5,20.4,341.8,20,5,51,0,20.4,20.4,0,0,0,20.4
15,3,2,22,353.4,1,27,15,19,6,25,0,-1,-3,22
15,4,3,20.2,321.4,5,23,18,15,7.2,22.2,2,0,0,20.2
15,5,3,24.2,319.8,3,23,18,17,7.2,24.2,0,0,0,24.2
15,6,1,13.8,358.6,0,24,22,20,8.8,28.8,15,0,0,13.8
15,7,1,0,268.4,15,19,22,5,8.8,13.8,0,-5,-15,0
15,8,3,21.2,360.6,0,30,18,20,7.2,27.2,0,-2,-6,21.2
15,9,4,17,303.8,10,26,25,10,10,20,3,0,0,17
15,10,2,22,377.4,1,29,15,19,6,25,0,-1,-3,22
15,11,2,23,385.6,3,30,15,17,6,23,0,0,0,23
15,12,2,14,310.2,10,24,15,10,6,16,2,0,0,14
15,13,5,40.4,351.8,0,28,51,20,20.4,40.4,0,0,0,40.4
15,14,3,17.2,325,10,28,18,10,7.2,17.2,0,0,0,17.2
15,15,1,6.8,348,7,27,22,13,8.8,21.8,0,-5,-15,6.8
15,16,5,29.4,345.6,11,29,51,9,20.4,29.4,0,0,0,29.4
15,17,4,19,296.6,8,27,25,12,10,22,0,-1,-3,19
15,18,1,13.8,285.4,0,28,22,20,8.8,28.8,0,-5,-15,13.8
15,19,4,22,347.6,5,27,25,15,10,25,0,-1,-3,22
15,20,4,25,331.6,2,27,25,18,10,28,0,-1,-3,25
16,1,2,11.2,244.4,20,29,28,0,11.2,11.2,0,0,0,11.2
16,2,1,9.6,351.4,20,18,24,0,9.6,9.6,0,0,0,9.6
16,3,3,23,376.4,7,4,25,13,10,23,0,0,0,23
16,4,2,21.2,342.6,8,24,28,12,11.2,23.2,2,0,0,21.2
16,5,1,27.6,347.4,2,29,24,18,9.6,27.6,0,0,0,27.6
16,6,5,28.8,387.4,0,21,22,20,8.8,28.8,0,0,0,28.8
16,7,2,28.2,296.6,0,17,28,20,11.2,31.2,0,-1,-3,28.2
16,8,1,27.6,388.2,2,24,24,18,9.6,27.6,0,0,0,27.6
16,9,5,26.8,330.6,2,28,22,18,8.8,26.8,0,0,0,26.8
16,10,4,26.4,403.8,1,29,26,19,10.4,29.4,0,-1,-3,26.4
16,11,3,27,412.6,3,23,25,17,10,27,0,0,0,27
16,12,4,10.4,320.6,20,28,26,0,10.4,10.4,0,0,0,10.4
16,13,1,29.6,381.4,0,28,24,20,9.6,29.6,0,0,0,29.6
16,14,5,18.8,343.8,10,26,22,10,8.8,18.8,0,0,0,18.8
16,15,5,18.8,366.8,10,28,22,10,8.8,18.8,0,0,0,18.8
16,16,3,17,362.6,13,27,25,7,10,17,0,0,0,17
16,17,4,27.4,324,0,29,26,20,10.4,30.4,0,-1,-3,27.4
16,18,2,28.2,313.6,0,28,28,20,11.2,31.2,0,-1,-3,28.2
16,19,4,23.4,371,5,26,26,15,10.4,25.4,2,0,0,23.4
16,20,3,28,359.6,2,20,25,18,10,28,0,0,0,28
17,1,4,9.6,254,20,29,24,0,9.6,9.6,0,0,0,9.6
17,2,5,19.8,371.2,0,27,7,20,2.8,22.8,0,-1,-3,19.8
17,3,3,24.8,401.2,0,24,12,20,4.8,24.8,0,0,0,24.8
17,4,5,16.8,359.4,5,9,7,15,2.8,17.8,1,0,0,16.8
17,5,5,21.8,369.2,1,29,7,19,2.8,21.8,0,0,0,21.8
17,6,1,28.8,416.2,0,27,22,20,8.8,28.8,0,0,0,28.8
17,7,5,21.8,318.4,1,26,7,19,2.8,21.8,0,0,0,21.8
17,8,1,26.8,415,2,29,22,18,8.8,26.8,0,0,0,26.8
17,9,3,23.8,354.4,1,29,12,19,4.8,23.8,0,0,0,23.8
17,10,4,28.6,432.4,1,28,24,19,9.6,28.6,0,0,0,28.6
17,11,4,26.6,439.2,3,28,24,17,9.6,26.6,0,0,0,26.6
17,12,2,18,338.6,12,28,25,8,10,18,0,0,0,18
17,13,2,30,411.4,0,28,25,20,10,30,0,0,0,30
17,14,2,20,363.8,10,28,25,10,10,20,0,0,0,20
17,15,3,19.8,386.6,5,22,12,15,4.8,19.8,0,0,0,19.8
17,16,1,18.8,381.4,10,28,22,10,8.8,18.8,0,0,0,18.8
17,17,1,18.8,342.8,10,14,22,10,8.8,18.8,0,0,0,18.8
17,18,4,29.6,343.2,0,27,24,20,9.6,29.6,0,0,0,29.6
17,19,3,18.8,389.8,6,26,12,14,4.8,18.8,0,0,0,18.8
17,20,2,27,386.6,3,25,25,17,10,27,0,0,0,27
18,1,1,16.8,270.8,20,28,42,0,16.8,16.8,0,0,0,16.8
18,2,2,16.2,387.4,2,22,3,18,1.2,19.2,3,0,0,16.2
18,3,3,28,429.2,2,25,25,18,10,28,0,0,0,28
18,4,4,21,380.4,8,26,25,12,10,22,1,0,0,21
18,5,1,34.8,404,2,23,42,18,16.8,34.8,0,0,0,34.8
18,6,5,22.8,439,0,28,7,20,2.8,22.8,0,0,0,22.8
18,7,1,18.8,337.2,18,25,42,2,16.8,18.8,0,0,0,18.8
18,8,3,28,443,2,27,25,18,10,28,0,0,0,28
18,9,2,18.2,372.6,0,22,3,20,1.2,21.2,0,-1,-3,18.2
18,10,2,17.2,449.6,1,29,3,19,1.2,20.2,0,-1,-3,17.2
18,11,5,20.8,460,2,26,7,18,2.8,20.8,0,0,0,20.8
18,12,3,10,348.6,20,26,25,0,10,10,0,0,0,10
18,13,5,22.8,434.2,0,27,7,20,2.8,22.8,0,0,0,22.8
18,14,4,20,383.8,10,28,25,10,10,20,0,0,0,20
18,15,3,29,415.6,1,27,25,19,10,29,0,0,0,29
18,16,4,23,404.4,7,27,25,13,10,23,0,0,0,23
18,17,2,18.2,361,0,29,3,20,1.2,21.2,0,-1,-3,18.2
18,18,4,27,370.2,0,28,25,20,10,30,0,-1,-3,27
18,19,5,17.8,407.6,5,24,7,15,2.8,17.8,0,0,0,17.8
18,20,1,34.8,421.4,2,22,42,18,16.8,34.8,0,0,0,34.8
19,1,5,12.2,283,20,28,38,0,15.2,15.2,0,-1,-3,12.2
19,2,4,21.2,408.6,0,21,3,20,1.2,21.2,0,0,0,21.2
19,3,4,20.2,449.4,1,24,3,19,1.2,20.2,0,0,0,20.2
19,4,2,15,395.4,8,16,10,12,4,16,1,0,0,15
19,5,1,20,424,1,26,10,19,4,23,0,-1,-3,20
19,6,4,21.2,460.2,0,27,3,20,1.2,21.2,0,0,0,21.2
19,7,1,17,354.2,5,18,10,15,4,19,2,0,0,17
19,8,2,23,466,1,27,10,19,4,23,0,0,0,23
19,9,1,21,393.6,3,28,10,17,4,21,0,0,0,21
19,10,1,20,469.6,1,29,10,19,4,23,0,-1,-3,20
19,11,5,32.2,492.2,0,30,38,20,15.2,35.2,3,0,0,32.2
19,12,5,24.2,372.8,8,29,38,12,15.2,27.2,0,-1,-3,24.2
19,13,2,21,455.2,0,29,10,20,4,24,0,-1,-3,21
19,14,5,22.2,406,10,28,38,10,15.2,25.2,0,-1,-3,22.2
19,15,2,23,438.6,1,28,10,19,4,23,0,0,0,23
19,16,3,16.4,420.8,6,30,6,14,2.4,16.4,0,0,0,16.4
19,17,3,22.4,383.4,0,28,6,20,2.4,22.4,0,0,0,22.4
19,18,3,22.4,392.6,0,28,6,20,2.4,22.4,0,0,0,22.4
19,19,3,22.4,430,0,28,6,20,2.4,22.4,0,0,0,22.4
19,20,4,19.2,440.6,2,28,3,18,1.2,19.2,0,0,0,19.2
20,1,3,12.4,295.4,20,29,31,0,12.4,12.4,0,0,0,12.4
20,2,4,25,433.6,0,25,30,20,12,32,1,-2,-6,25
20,3,3,32.4,481.8,0,22,31,20,12.4,32.4,0,0,0,32.4
20,4,4,21,416.4,8,18,30,12,12,24,3,0,0,21
20,5,5,15.8,439.8,2,30,2,18,0.8,18.8,3,0,0,15.8
20,6,5,17.8,478,0,22,2,20,0.8,20.8,0,-1,-3,17.8
20,7,2,17,371.2,7,26,10,13,4,17,0,0,0,17
20,8,3,31.4,497.4,1,28,31,19,12.4,31.4,0,0,0,31.4
20,9,1,17.6,411.2,3,23,4,17,1.6,18.6,1,0,0,17.6
20,10,1,17.6,487.2,1,29,4,19,1.6,20.6,0,-1,-3,17.6
20,11,4,24,516.2,2,29,30,18,12,30,0,-2,-6,24
20,12,4,12,384.8,20,27,30,0,12,12,0,0,0,12
20,13,1,21.6,476.8,0,28,4,20,1.6,21.6,0,0,0,21.6
20,14,3,22.4,428.4,10,28,31,10,12.4,22.4,0,0,0,22.4
20,15,2,21,459.6,3,23,10,17,4,21,0,0,0,21
20,16,5,17.8,438.6,0,30,2,20,0.8,20.8,0,-1,-3,17.8
20,17,2,24,407.4,0,29,10,20,4,24,0,0,0,24
20,18,1,21.6,414.2,0,29,4,20,1.6,21.6,0,0,0,21.6
20,19,2,24,454,0,27,10,20,4,24,0,0,0,24
20,20,5,17.8,458.4,0,28,2,20,0.8,20.8,0,-1,-3,17.8
