Period,Subject,Group,Profit,TotalProfit,Participate,Total_Deduct,Total_First_Income,Total_Cost,contribution,percentContribution,sumContribution,n,Profit1Own,Profit1Group,Profit1,Cost,ReceivedPoints,Reduction,Profit2
1,1,4,30.2,55.2,0,0,30.2,0,5,25,38,4,15,15.2,30.2,0,0,0,30.2
1,2,2,21.6,46.6,0,0,21.6,0,8,40,24,4,12,9.6,21.6,0,0,0,21.6
1,3,5,27.2,52.2,0,0,27.2,0,0,0,18,4,20,7.2,27.2,0,0,0,27.2
1,4,1,31.2,56.2,0,0,33.2,2,6,30,48,4,14,19.2,33.2,2,0,0,31.2
1,5,3,16.2,41.2,0,-12,28.2,0,7,35,38,4,13,15.2,28.2,0,-4,-12,16.2
1,6,1,19.2,44.2,0,0,19.2,0,20,100,48,4,0,19.2,19.2,0,0,0,19.2
1,7,5,27.2,52.2,0,0,27.2,0,0,0,18,4,20,7.2,27.2,0,0,0,27.2
1,8,2,26.6,51.6,0,-3,29.6,0,0,0,24,4,20,9.6,29.6,0,-1,-3,26.6
1,9,4,15.2,40.2,0,0,15.2,0,20,100,38,4,0,15.2,15.2,0,0,0,15.2
1,10,1,19.2,44.2,0,0,19.2,0,20,100,48,4,0,19.2,19.2,0,0,0,19.2
1,11,2,18.6,43.6,0,0,19.6,1,10,50,24,4,10,9.6,19.6,1,0,0,18.6
1,12,3,2.2,27.2,0,0,15.2,13,20,100,38,4,0,15.2,15.2,13,0,0,2.2
1,13,2,23.6,48.6,0,0,23.6,0,6,30,24,4,14,9.6,23.6,0,0,0,23.6
1,14,3,14.2,39.2,0,-12,28.2,2,7,35,38,4,13,15.2,28.2,2,-4,-12,14.2
1,15,3,10.2,35.2,0,-21,31.2,0,4,20,38,4,16,15.2,31.2,0,-7,-21,10.2
1,16,1,31.2,56.2,0,-6,37.2,0,2,10,48,4,18,19.2,37.2,0,-2,-6,31.2
1,17,5,25.2,50.2,0,0,25.2,0,2,10,18,4,18,7.2,25.2,0,0,0,25.2
1,18,4,27.2,52.2,0,0,27.2,0,8,40,38,4,12,15.2,27.2,0,0,0,27.2
1,19,4,30.2,55.2,0,0,30.2,0,5,25,38,4,15,15.2,30.2,0,0,0,30.2
1,20,5,11.2,36.2,0,0,11.2,0,16,80,18,4,4,7.2,11.2,0,0,0,11.2
2,1,5,21.4,76.6,0,0,52.6,1,6,30,21,4,14,8.4,22.4,1,0,0,21.4
2,2,2,18.4,65,0,0,40,0,8,40,16,4,12,6.4,18.4,0,0,0,18.4
2,3,2,20.4,72.6,0,-6,53.6,0,0,0,16,4,20,6.4,26.4,0,-2,-6,20.4
2,4,4,25.8,82,0,-3,62,2,12,60,52,4,8,20.8,28.8,0,-1,-3,25.8
2,5,3,29.8,71,0,-12,58,0,15,75,62,4,5,24.8,29.8,0,0,0,29.8
2,6,1,16.8,61,0,0,36,0,10,50,17,4,10,6.8,16.8,0,0,0,16.8
2,7,1,26.8,79,0,0,54,0,0,0,17,4,20,6.8,26.8,0,0,0,26.8
2,8,2,20.4,72,0,-9,56,0,0,0,16,4,20,6.4,26.4,0,-2,-6,20.4
2,9,3,24.8,65,0,0,40,0,20,100,62,4,0,24.8,24.8,0,0,0,24.8
2,10,3,24.8,69,0,0,44,0,20,100,62,4,0,24.8,24.8,0,0,0,24.8
2,11,5,19.4,63,0,0,40,2,8,40,21,4,12,8.4,20.4,1,0,0,19.4
2,12,4,15.8,43,0,0,36,18,20,100,52,4,0,20.8,20.8,5,0,0,15.8
2,13,2,14.4,63,0,0,42,4,8,40,16,4,12,6.4,18.4,4,0,0,14.4
2,14,3,37.8,77,0,-12,66,2,7,35,62,4,13,24.8,37.8,0,0,0,37.8
2,15,4,24.8,60,0,-27,62,0,10,50,52,4,10,20.8,30.8,0,-2,-6,24.8
2,16,1,21.8,78,0,-6,59,0,5,25,17,4,15,6.8,21.8,0,0,0,21.8
2,17,5,20.4,70.6,0,-6,51.6,0,2,10,21,4,18,8.4,26.4,0,-2,-6,20.4
2,18,5,23.4,75.6,0,0,50.6,0,5,25,21,4,15,8.4,23.4,0,0,0,23.4
2,19,4,24.8,80,0,-6,61,0,10,50,52,4,10,20.8,30.8,0,-2,-6,24.8
2,20,1,24.8,61,0,0,36,0,2,10,17,4,18,6.8,24.8,0,0,0,24.8
3,1,4,12,88.6,0,-9,75.6,3,5,25,20,4,15,8,23,2,-3,-9,12
3,2,3,24.8,89.8,0,0,66.8,2,6,30,32,4,14,12.8,26.8,2,0,0,24.8
3,3,4,10,82.6,0,-24,81.6,0,0,0,20,4,20,8,28,0,-6,-18,10
3,4,1,24,106,0,-3,88,4,14,70,50,4,6,20,26,2,0,0,24
3,5,2,15.2,86.2,0,-12,73.2,0,20,100,38,4,0,15.2,15.2,0,0,0,15.2
3,6,2,30.2,91.2,0,-3,69.2,0,2,10,38,4,18,15.2,33.2,0,-1,-3,30.2
3,7,1,24,103,0,-12,90,0,4,20,50,4,16,20,36,0,-4,-12,24
3,8,4,10,82,0,-27,84,0,0,0,20,4,20,8,28,0,-6,-18,10
3,9,5,13.6,78.6,0,0,53.6,0,20,100,34,4,0,13.6,13.6,0,0,0,13.6
3,10,3,12.8,81.8,0,0,56.8,0,20,100,32,4,0,12.8,12.8,0,0,0,12.8
3,11,5,27.6,90.6,0,0,68.6,3,5,25,34,4,15,13.6,28.6,1,0,0,27.6
3,12,1,17,60,0,0,56,21,20,100,50,4,0,20,20,3,0,0,17
3,13,5,26.6,89.6,0,0,68.6,4,7,35,34,4,13,13.6,26.6,0,0,0,26.6
3,14,4,0,77,0,-12,79,15,15,75,20,4,5,8,13,13,0,0,0
3,15,2,18.2,78.2,0,-27,82.2,2,15,75,38,4,5,15.2,20.2,2,0,0,18.2
3,16,3,25.8,103.8,0,-12,90.8,0,1,5,32,4,19,12.8,31.8,0,-2,-6,25.8
3,17,5,28.6,99.2,0,-9,83.2,0,2,10,34,4,18,13.6,31.6,0,-1,-3,28.6
3,18,3,27.8,103.4,0,0,78.4,0,5,25,32,4,15,12.8,27.8,0,0,0,27.8
3,19,1,25,105,0,-9,89,0,12,60,50,4,8,20,28,0,-1,-3,25
3,20,2,31.2,92.2,0,-3,70.2,0,1,5,38,4,19,15.2,34.2,0,-1,-3,31.2
4,1,1,27.6,116.2,0,-9,104.2,4,5,25,34,4,15,13.6,28.6,1,0,0,27.6
4,2,4,26.8,116.6,0,-6,99.6,2,6,30,47,4,14,18.8,32.8,0,-2,-6,26.8
4,3,3,6.4,89,0,-48,114,2,0,0,31,4,20,12.4,32.4,2,-8,-24,6.4
4,4,3,15.4,121.4,0,-3,105.4,6,15,75,31,4,5,12.4,17.4,2,0,0,15.4
4,5,5,21.8,108,0,-12,95,0,15,75,42,4,5,16.8,21.8,0,0,0,21.8
4,6,1,23.6,114.8,0,-9,98.8,0,4,20,34,4,16,13.6,29.6,0,-2,-6,23.6
4,7,2,25,128,0,-12,115,0,5,25,25,4,15,10,25,0,0,0,25
4,8,5,36.8,118.8,0,-27,120.8,0,0,0,42,4,20,16.8,36.8,0,0,0,36.8
4,9,1,13.6,92.2,0,0,67.2,0,20,100,34,4,0,13.6,13.6,0,0,0,13.6
4,10,5,16.8,98.6,0,0,73.6,0,20,100,42,4,0,16.8,16.8,0,0,0,16.8
4,11,1,27.6,118.2,0,0,97.2,4,5,25,34,4,15,13.6,28.6,1,0,0,27.6
4,12,4,15.8,75.8,0,0,74.8,24,20,100,47,4,0,18.8,18.8,3,0,0,15.8
4,13,4,27.8,117.4,0,-3,99.4,4,8,40,47,4,12,18.8,30.8,0,-1,-3,27.8
4,14,3,3.4,80.4,0,-12,96.4,29,15,75,31,4,5,12.4,17.4,14,0,0,3.4
4,15,4,25.8,104,0,-27,108,2,13,65,47,4,7,18.8,25.8,0,0,0,25.8
4,16,5,29.8,133.6,0,-12,120.6,0,7,35,42,4,13,16.8,29.8,0,0,0,29.8
4,17,2,27,126.2,0,-9,110.2,0,3,15,25,4,17,10,27,0,0,0,27
4,18,2,25,128.4,0,0,103.4,0,5,25,25,4,15,10,25,0,0,0,25
4,19,2,18,123,0,-9,107,0,12,60,25,4,8,10,18,0,0,0,18
4,20,3,1.4,93.6,0,-33,101.6,0,1,5,31,4,19,12.4,31.4,0,-10,-30,1.4
5,1,2,27.8,144,0,-9,132,4,5,25,32,4,15,12.8,27.8,0,0,0,27.8
5,2,2,25.8,142.4,0,-6,125.4,2,7,35,32,4,13,12.8,25.8,0,0,0,25.8
5,3,3,21,110,0,-51,140,4,0,0,15,4,20,6,26,2,-1,-3,21
5,4,4,26.6,148,0,-6,136,7,9,45,49,4,11,19.6,30.6,1,-1,-3,26.6
5,5,2,17.8,125.8,0,-12,112.8,0,15,75,32,4,5,12.8,17.8,0,0,0,17.8
5,6,1,26.4,141.2,0,-18,134.2,0,3,15,46,4,17,18.4,35.4,0,-3,-9,26.4
5,7,2,27.8,155.8,0,-12,142.8,0,5,25,32,4,15,12.8,27.8,0,0,0,27.8
5,8,3,17,135.8,0,-36,146.8,0,0,0,15,4,20,6,26,0,-3,-9,17
5,9,1,23.4,115.6,0,0,90.6,0,15,75,46,4,5,18.4,23.4,0,0,0,23.4
5,10,4,19.6,118.2,0,0,93.2,0,20,100,49,4,0,19.6,19.6,0,0,0,19.6
5,11,4,22.6,140.8,0,-12,131.8,4,5,25,49,4,15,19.6,34.6,0,-4,-12,22.6
5,12,1,15.4,91.2,0,0,94.2,28,19,95,46,4,1,18.4,19.4,4,0,0,15.4
5,13,1,26.4,143.8,0,-6,128.8,4,9,45,46,4,11,18.4,29.4,0,-1,-3,26.4
5,14,4,20.6,101,0,-12,121,33,15,75,49,4,5,19.6,24.6,4,0,0,20.6
5,15,5,11.4,115.4,0,-27,125.4,8,15,75,31,4,5,12.4,17.4,6,0,0,11.4
5,16,5,21.4,155,0,-15,145,0,8,40,31,4,12,12.4,24.4,0,-1,-3,21.4
5,17,3,19,145.2,0,-9,131.2,2,5,25,15,4,15,6,21,2,0,0,19
5,18,5,21.4,149.8,0,-6,130.8,0,5,25,31,4,15,12.4,27.4,0,-2,-6,21.4
5,19,3,16,139,0,-9,123,0,10,50,15,4,10,6,16,0,0,0,16
5,20,5,20.4,114,0,-42,131,0,3,15,31,4,17,12.4,29.4,0,-3,-9,20.4
6,1,5,21.8,165.8,0,-12,158.8,6,6,30,32,4,14,12.8,26.8,2,-1,-3,21.8
6,2,1,24.2,166.6,0,-9,154.6,4,6,30,38,4,14,15.2,29.2,2,-1,-3,24.2
6,3,2,30,140,0,-57,176,4,0,0,40,4,20,16,36,0,-2,-6,30
6,4,3,18.4,166.4,0,-6,154.4,7,10,50,21,4,10,8.4,18.4,0,0,0,18.4
6,5,4,21.4,147.2,0,-12,134.2,0,15,75,41,4,5,16.4,21.4,0,0,0,21.4
6,6,3,26.4,167.6,0,-18,160.6,0,2,10,21,4,18,8.4,26.4,0,0,0,26.4
6,7,3,23.4,179.2,0,-12,166.2,0,5,25,21,4,15,8.4,23.4,0,0,0,23.4
6,8,2,26,161.8,0,-36,172.8,0,10,50,40,4,10,16,26,0,0,0,26
6,9,1,19.2,134.8,0,0,109.8,0,16,80,38,4,4,15.2,19.2,0,0,0,19.2
6,10,2,16,134.2,0,0,109.2,0,20,100,40,4,0,16,16,0,0,0,16
6,11,2,24,164.8,0,-12,157.8,6,10,50,40,4,10,16,26,2,0,0,24
6,12,1,14.2,105.4,0,0,113.4,33,16,80,38,4,4,15.2,19.2,5,0,0,14.2
6,13,5,20.8,164.6,0,-6,151.6,6,10,50,32,4,10,12.8,22.8,2,0,0,20.8
6,14,4,15.4,116.4,0,-12,142.4,39,15,75,41,4,5,16.4,21.4,6,0,0,15.4
6,15,5,12.8,128.2,0,-27,143.2,13,15,75,32,4,5,12.8,17.8,5,0,0,12.8
6,16,3,24.4,179.4,0,-15,169.4,0,4,20,21,4,16,8.4,24.4,0,0,0,24.4
6,17,1,17.2,162.4,0,-27,166.4,2,0,0,38,4,20,15.2,35.2,0,-6,-18,17.2
6,18,4,22.4,172.2,0,-15,162.2,0,5,25,41,4,15,16.4,31.4,0,-3,-9,22.4
6,19,4,21.4,160.4,0,-18,153.4,0,6,30,41,4,14,16.4,30.4,0,-3,-9,21.4
6,20,5,7.8,121.8,0,-66,162.8,0,1,5,32,4,19,12.8,31.8,0,-8,-24,7.8
7,1,1,23,188.8,0,-12,182.8,7,6,30,25,4,14,10,24,1,0,0,23
7,2,3,18.6,185.2,0,-9,173.2,4,9,45,19,4,11,7.6,18.6,0,0,0,18.6
7,3,3,25.6,165.6,0,-57,203.6,6,0,0,19,4,20,7.6,27.6,2,0,0,25.6
7,4,5,25,191.4,0,-6,179.4,7,7,35,30,4,13,12,25,0,0,0,25
7,5,4,21.4,168.6,0,-15,158.6,0,10,50,36,4,10,14.4,24.4,0,-1,-3,21.4
7,6,2,23.8,191.4,0,-30,196.4,0,7,35,57,4,13,22.8,35.8,0,-4,-12,23.8
7,7,3,21.6,200.8,0,-18,193.8,0,0,0,19,4,20,7.6,27.6,0,-2,-6,21.6
7,8,1,25,186.8,0,-36,197.8,0,5,25,25,4,15,10,25,0,0,0,25
7,9,5,17,151.8,0,0,126.8,0,15,75,30,4,5,12,17,0,0,0,17
7,10,2,22.8,157,0,0,132,0,20,100,57,4,0,22.8,22.8,0,0,0,22.8
7,11,1,20,184.8,0,-12,177.8,6,10,50,25,4,10,10,20,0,0,0,20
7,12,4,14.4,119.8,0,0,132.8,38,15,75,36,4,5,14.4,19.4,5,0,0,14.4
7,13,4,19.4,184,0,-9,176,8,10,50,36,4,10,14.4,24.4,2,-1,-3,19.4
7,14,2,24.8,141.2,0,-12,170.2,42,15,75,57,4,5,22.8,27.8,3,0,0,24.8
7,15,2,26.8,155,0,-27,171,14,15,75,57,4,5,22.8,27.8,1,0,0,26.8
7,16,5,29,208.4,0,-15,198.4,0,3,15,30,4,17,12,29,0,0,0,29
7,17,1,23,185.4,0,-30,192.4,2,4,20,25,4,16,10,26,0,-1,-3,23
7,18,5,27,199.2,0,-15,189.2,0,5,25,30,4,15,12,27,0,0,0,27
7,19,3,17.6,178,0,-18,171,0,10,50,19,4,10,7.6,17.6,0,0,0,17.6
7,20,4,18.4,140.2,0,-81,196.2,0,1,5,36,4,19,14.4,33.4,0,-5,-15,18.4
8,1,2,21.6,210.4,0,-18,210.4,7,6,30,34,4,14,13.6,27.6,0,-2,-6,21.6
8,2,4,25,210.2,0,-15,204.2,4,5,25,40,4,15,16,31,0,-2,-6,25
8,3,1,21,186.6,0,-60,231.6,10,0,0,20,4,20,8,28,4,-1,-3,21
8,4,5,14.8,206.2,0,-6,198.2,11,8,40,17,4,12,6.8,18.8,4,0,0,14.8
8,5,4,23,191.6,0,-18,184.6,0,10,50,40,4,10,16,26,0,-1,-3,23
8,6,3,21.2,212.6,0,-30,217.6,0,8,40,23,4,12,9.2,21.2,0,0,0,21.2
8,7,3,29.2,230,0,-18,223,0,0,0,23,4,20,9.2,29.2,0,0,0,29.2
8,8,5,20.8,207.6,0,-42,224.6,0,0,0,17,4,20,6.8,26.8,0,-2,-6,20.8
8,9,3,19.2,171,0,0,146,0,10,50,23,4,10,9.2,19.2,0,0,0,19.2
8,10,1,8,165,0,0,140,0,20,100,20,4,0,8,8,0,0,0,8
8,11,2,22.6,207.4,0,-15,203.4,6,8,40,34,4,12,13.6,25.6,0,-1,-3,22.6
8,12,1,20,139.8,0,-6,160.8,40,0,0,20,4,20,8,28,2,-2,-6,20
8,13,4,23,207,0,-12,202,8,10,50,40,4,10,16,26,0,-1,-3,23
8,14,2,12.6,153.8,0,-12,188.8,48,15,75,34,4,5,13.6,18.6,6,0,0,12.6
8,15,4,17,172,0,-27,192,18,15,75,40,4,5,16,21,4,0,0,17
8,16,2,19.6,228,0,-24,227,0,5,25,34,4,15,13.6,28.6,0,-3,-9,19.6
8,17,5,19.8,205.2,0,-36,218.2,2,1,5,17,4,19,6.8,25.8,0,-2,-6,19.8
8,18,3,24.2,223.4,0,-15,213.4,0,5,25,23,4,15,9.2,24.2,0,0,0,24.2
8,19,5,18.8,196.8,0,-18,189.8,0,8,40,17,4,12,6.8,18.8,0,0,0,18.8
8,20,1,19,159.2,0,-90,224.2,0,0,0,20,4,20,8,28,0,-3,-9,19
9,1,3,18.4,228.8,0,-24,236.8,9,6,30,31,4,14,12.4,26.4,2,-2,-6,18.4
9,2,5,22,232.2,0,-15,227.2,5,5,25,20,4,15,8,23,1,0,0,22
9,3,3,5.4,192,0,-87,264,10,0,0,31,4,20,12.4,32.4,0,-9,-27,5.4
9,4,4,18,224.2,0,-12,222.2,11,8,40,30,4,12,12,24,0,-2,-6,18
9,5,1,22.6,214.2,0,-18,207.2,0,9,45,29,4,11,11.6,22.6,0,0,0,22.6
9,6,1,28.6,241.2,0,-30,246.2,0,3,15,29,4,17,11.6,28.6,0,0,0,28.6
9,7,2,22.8,252.8,0,-24,251.8,0,2,10,27,4,18,10.8,28.8,0,-2,-6,22.8
9,8,5,22,229.6,0,-48,252.6,0,0,0,20,4,20,8,28,0,-2,-6,22
9,9,1,23.6,194.6,0,0,169.6,0,8,40,29,4,12,11.6,23.6,0,0,0,23.6
9,10,2,10.8,175.8,0,0,150.8,0,20,100,27,4,0,10.8,10.8,0,0,0,10.8
9,11,5,19,226.4,0,-15,223.4,7,8,40,20,4,12,8,20,1,0,0,19
9,12,2,27.8,167.6,0,-6,191.6,43,0,0,27,4,20,10.8,30.8,3,0,0,27.8
9,13,3,20.4,227.4,0,-12,224.4,10,10,50,31,4,10,12.4,22.4,2,0,0,20.4
9,14,3,10.4,164.2,0,-12,206.2,55,15,75,31,4,5,12.4,17.4,7,0,0,10.4
9,15,4,7,179,0,-27,209,28,15,75,30,4,5,12,17,10,0,0,7
9,16,5,21,249,0,-24,248,0,7,35,20,4,13,8,21,0,0,0,21
9,17,4,15,220.2,0,-51,248.2,2,2,10,30,4,18,12,30,0,-5,-15,15
9,18,4,18,241.4,0,-24,240.4,0,5,25,30,4,15,12,27,0,-3,-9,18
9,19,2,22.8,219.6,0,-21,215.6,0,5,25,27,4,15,10.8,25.8,0,-1,-3,22.8
9,20,1,22.6,181.8,0,-90,246.8,0,9,45,29,4,11,11.6,22.6,0,0,0,22.6
10,1,1,20.8,249.6,0,-24,259.6,11,6,30,22,4,14,8.8,22.8,2,0,0,20.8
10,2,2,15.8,248,0,-30,258,5,4,20,37,4,16,14.8,30.8,0,-5,-15,15.8
10,3,5,30.8,222.8,0,-87,294.8,10,0,0,27,4,20,10.8,30.8,0,0,0,30.8
10,4,5,24.8,249,0,-12,247,11,6,30,27,4,14,10.8,24.8,0,0,0,24.8
10,5,1,18.8,233,0,-18,226,0,10,50,22,4,10,8.8,18.8,0,0,0,18.8
10,6,5,29.8,271,0,-30,276,0,1,5,27,4,19,10.8,29.8,0,0,0,29.8
10,7,3,12.2,265,0,-39,279,0,2,10,23,4,18,9.2,27.2,0,-5,-15,12.2
10,8,3,-0.8,228.8,0,-78,281.8,0,0,0,23,4,20,9.2,29.2,0,-10,-30,-0.8
10,9,2,24.8,219.4,0,0,194.4,0,10,50,37,4,10,14.8,24.8,0,0,0,24.8
10,10,5,10.8,186.6,0,0,161.6,0,20,100,27,4,0,10.8,10.8,0,0,0,10.8
10,11,2,22.8,249.2,0,-18,250.2,8,8,40,37,4,12,14.8,26.8,1,-1,-3,22.8
10,12,4,20,187.6,0,-12,217.6,43,0,0,15,4,20,6,26,0,-2,-6,20
10,13,4,12,239.4,0,-12,240.4,14,10,50,15,4,10,6,16,4,0,0,12
10,14,2,14.8,179,0,-12,226,60,15,75,37,4,5,14.8,19.8,5,0,0,14.8
10,15,3,-3.8,175.2,0,-27,223.2,46,15,75,23,4,5,9.2,14.2,18,0,0,-3.8
10,16,3,14.2,263.2,0,-33,271.2,0,6,30,23,4,14,9.2,23.2,0,-3,-9,14.2
10,17,4,20,240.2,0,-57,274.2,2,0,0,15,4,20,6,26,0,-2,-6,20
10,18,1,23.8,265.2,0,-24,264.2,0,5,25,22,4,15,8.8,23.8,0,0,0,23.8
10,19,4,21,240.6,0,-21,236.6,0,5,25,15,4,15,6,21,0,0,0,21
10,20,1,21.8,203.6,0,-96,274.6,0,1,5,22,4,19,8.8,27.8,0,-2,-6,21.8
11,1,3,22,271.6,0,-24,282.6,12,7,35,25,4,13,10,23,1,0,0,22
11,2,4,23.2,271.2,0,-36,287.2,5,0,0,23,4,20,9.2,29.2,0,-2,-6,23.2
11,3,4,24.2,247,0,-87,319,10,5,25,23,4,15,9.2,24.2,0,0,0,24.2
11,4,4,18.2,267.2,0,-12,266.2,12,10,50,23,4,10,9.2,19.2,1,0,0,18.2
11,5,5,28,261,0,-18,254,0,10,50,45,4,10,18,28,0,0,0,28
11,6,1,15.2,286.2,0,-51,312.2,0,3,15,48,4,17,19.2,36.2,0,-7,-21,15.2
11,7,2,2.2,267.2,0,-72,314.2,0,0,0,38,4,20,15.2,35.2,0,-11,-33,2.2
11,8,5,28,256.8,0,-78,309.8,0,10,50,45,4,10,18,28,0,0,0,28
11,9,2,15.2,234.6,0,0,209.6,0,20,100,38,4,0,15.2,15.2,0,0,0,15.2
11,10,5,18,204.6,0,0,179.6,0,20,100,45,4,0,18,18,0,0,0,18
11,11,4,20.2,269.4,0,-18,271.4,9,8,40,23,4,12,9.2,21.2,1,0,0,20.2
11,12,1,17.2,204.8,0,-12,236.8,45,20,100,48,4,0,19.2,19.2,2,0,0,17.2
11,13,1,29.2,268.6,0,-12,269.6,14,10,50,48,4,10,19.2,29.2,0,0,0,29.2
11,14,1,19.2,198.2,0,-12,250.2,65,15,75,48,4,5,19.2,24.2,5,0,0,19.2
11,15,2,5.2,180.4,0,-27,243.4,61,15,75,38,4,5,15.2,20.2,15,0,0,5.2
11,16,3,24,287.2,0,-36,298.2,0,3,15,25,4,17,10,27,0,-1,-3,24
11,17,2,16.2,256.4,0,-72,306.4,3,3,15,38,4,17,15.2,32.2,1,-5,-15,16.2
11,18,5,33,298.2,0,-24,297.2,0,5,25,45,4,15,18,33,0,0,0,33
11,19,3,25,265.6,0,-21,261.6,0,5,25,25,4,15,10,25,0,0,0,25
11,20,3,20,223.6,0,-96,294.6,0,10,50,25,4,10,10,20,0,0,0,20
12,1,1,23.6,295.2,0,-24,307.2,13,7,35,29,4,13,11.6,24.6,1,0,0,23.6
12,2,2,26.2,297.4,0,-36,313.4,5,7,35,33,4,13,13.2,26.2,0,0,0,26.2
12,3,2,25.2,272.2,0,-90,347.2,10,5,25,33,4,15,13.2,28.2,0,-1,-3,25.2
12,4,2,22.2,289.4,0,-12,288.4,12,11,55,33,4,9,13.2,22.2,0,0,0,22.2
12,5,4,23.4,284.4,0,-18,277.4,0,13,65,41,4,7,16.4,23.4,0,0,0,23.4
12,6,2,22.2,308.4,0,-51,335.4,1,10,50,33,4,10,13.2,23.2,1,0,0,22.2
12,7,3,30.8,298,0,-72,345,0,2,10,32,4,18,12.8,30.8,0,0,0,30.8
12,8,5,30,286.8,0,-84,345.8,0,10,50,65,4,10,26,36,0,-2,-6,30
12,9,3,17.8,252.4,0,0,227.4,0,15,75,32,4,5,12.8,17.8,0,0,0,17.8
12,10,5,26,230.6,0,0,205.6,0,20,100,65,4,0,26,26,0,0,0,26
12,11,4,25.4,294.8,0,-21,299.8,9,8,40,41,4,12,16.4,28.4,0,-1,-3,25.4
12,12,5,25,229.8,0,-12,262.8,46,20,100,65,4,0,26,26,1,0,0,25
12,13,1,18.6,287.2,0,-12,289.2,15,12,60,29,4,8,11.6,19.6,1,0,0,18.6
12,14,4,16.4,214.6,0,-12,271.6,70,15,75,41,4,5,16.4,21.4,5,0,0,16.4
12,15,5,30,210.4,0,-27,274.4,62,15,75,65,4,5,26,31,1,0,0,30
12,16,1,25.6,312.8,0,-36,323.8,0,6,30,29,4,14,11.6,25.6,0,0,0,25.6
12,17,1,21.6,278,0,-78,334,3,4,20,29,4,16,11.6,27.6,0,-2,-6,21.6
12,18,4,19.4,317.6,0,-36,328.6,0,5,25,41,4,15,16.4,31.4,0,-4,-12,19.4
12,19,3,27.8,293.4,0,-21,289.4,0,5,25,32,4,15,12.8,27.8,0,0,0,27.8
12,20,3,22.8,246.4,0,-96,317.4,0,10,50,32,4,10,12.8,22.8,0,0,0,22.8
13,1,4,21.2,316.4,0,-30,335.4,14,7,35,38,4,13,15.2,28.2,1,-2,-6,21.2
13,2,4,17.2,314.6,0,-48,342.6,5,6,30,38,4,14,15.2,29.2,0,-4,-12,17.2
13,3,5,25.8,298,0,-93,376,10,6,30,37,4,14,14.8,28.8,0,-1,-3,25.8
13,4,2,28.8,318.2,0,-12,318.2,13,9,45,47,4,11,18.8,29.8,1,0,0,28.8
13,5,2,25.8,310.2,0,-18,303.2,0,13,65,47,4,7,18.8,25.8,0,0,0,25.8
13,6,1,24.2,332.6,0,-51,360.6,2,10,50,38,4,10,15.2,25.2,1,0,0,24.2
13,7,1,25.2,323.2,0,-81,379.2,0,1,5,38,4,19,15.2,34.2,0,-3,-9,25.2
13,8,1,20.2,307,0,-84,366,0,15,75,38,4,5,15.2,20.2,0,0,0,20.2
13,9,4,25.2,277.6,0,0,252.6,0,10,50,38,4,10,15.2,25.2,0,0,0,25.2
13,10,2,18.8,249.4,0,0,224.4,0,20,100,47,4,0,18.8,18.8,0,0,0,18.8
13,11,3,21.6,316.4,0,-27,327.4,9,8,40,39,4,12,15.6,27.6,0,-2,-6,21.6
13,12,5,11.8,241.6,0,-12,277.6,49,20,100,37,4,0,14.8,14.8,3,0,0,11.8
13,13,1,21.2,308.4,0,-12,312.4,17,12,60,38,4,8,15.2,23.2,2,0,0,21.2
13,14,4,15.2,229.8,0,-12,291.8,75,15,75,38,4,5,15.2,20.2,5,0,0,15.2
13,15,3,15.6,226,0,-27,295,67,15,75,39,4,5,15.6,20.6,5,0,0,15.6
13,16,5,25.8,338.6,0,-39,352.6,0,6,30,37,4,14,14.8,28.8,0,-1,-3,25.8
13,17,3,23.6,301.6,0,-84,363.6,3,6,30,39,4,14,15.6,29.6,0,-2,-6,23.6
13,18,5,26.8,344.4,0,-39,358.4,0,5,25,37,4,15,14.8,29.8,0,-1,-3,26.8
13,19,2,30.8,324.2,0,-24,323.2,0,5,25,47,4,15,18.8,33.8,0,-1,-3,30.8
13,20,3,22.6,269,0,-99,343,0,10,50,39,4,10,15.6,25.6,0,-1,-3,22.6
14,1,2,17.4,333.8,0,-36,360.8,16,7,35,31,4,13,12.4,25.4,2,-2,-6,17.4
14,2,3,22.2,336.8,0,-54,370.8,5,7,35,38,4,13,15.2,28.2,0,-2,-6,22.2
14,3,3,20.2,318.2,0,-102,405.2,10,6,30,38,4,14,15.2,29.2,0,-3,-9,20.2
14,4,4,26,344.2,0,-12,344.2,13,10,50,40,4,10,16,26,0,0,0,26
14,5,4,22,332.2,0,-18,325.2,0,14,70,40,4,6,16,22,0,0,0,22
14,6,5,28,360.6,0,-54,392.6,3,10,50,55,4,10,22,32,1,-1,-3,28
14,7,2,9.4,332.6,0,-102,409.6,0,2,10,31,4,18,12.4,30.4,0,-7,-21,9.4
14,8,1,24,331,0,-84,390,0,10,50,35,4,10,14,24,0,0,0,24
14,9,4,26,303.6,0,0,278.6,0,10,50,40,4,10,16,26,0,0,0,26
14,10,5,22,271.4,0,0,246.4,0,20,100,55,4,0,22,22,0,0,0,22
14,11,1,26,342.4,0,-27,353.4,9,8,40,35,4,12,14,26,0,0,0,26
14,12,5,19,260.6,0,-12,299.6,52,20,100,55,4,0,22,22,3,0,0,19
14,13,1,21,329.4,0,-12,334.4,18,12,60,35,4,8,14,22,1,0,0,21
14,14,3,15.2,245,0,-12,312,80,15,75,38,4,5,15.2,20.2,5,0,0,15.2
14,15,2,8.4,234.4,0,-27,312.4,76,15,75,31,4,5,12.4,17.4,9,0,0,8.4
14,16,4,30,368.6,0,-39,382.6,0,6,30,40,4,14,16,30,0,0,0,30
14,17,2,19.4,321,0,-90,389,3,7,35,31,4,13,12.4,25.4,0,-2,-6,19.4
14,18,5,28,372.4,0,-48,395.4,0,5,25,55,4,15,22,37,0,-3,-9,28
14,19,1,26,350.2,0,-27,352.2,0,5,25,35,4,15,14,29,0,-1,-3,26
14,20,3,25.2,294.2,0,-99,368.2,0,10,50,38,4,10,15.2,25.2,0,0,0,25.2
15,1,5,26.2,360,0,-36,387,16,7,35,33,4,13,13.2,26.2,0,0,0,26.2
15,2,5,26.2,363,0,-54,397,5,7,35,33,4,13,13.2,26.2,0,0,0,26.2
15,3,2,29,347.2,0,-108,440.2,10,7,35,55,4,13,22,35,0,-2,-6,29
15,4,3,26.6,370.8,0,-12,370.8,13,11,55,44,4,9,17.6,26.6,0,0,0,26.6
15,5,3,24.6,356.8,0,-18,349.8,0,13,65,44,4,7,17.6,24.6,0,0,0,24.6
15,6,1,17.2,377.8,0,-54,411.8,5,16,80,38,4,4,15.2,19.2,2,0,0,17.2
15,7,1,15.2,347.8,0,-120,442.8,0,2,10,38,4,18,15.2,33.2,0,-6,-18,15.2
15,8,3,27.6,358.6,0,-84,417.6,0,10,50,44,4,10,17.6,27.6,0,0,0,27.6
15,9,4,20,323.6,0,0,298.6,0,10,50,25,4,10,10,20,0,0,0,20
15,10,2,22,293.4,0,0,268.4,0,20,100,55,4,0,22,22,0,0,0,22
15,11,2,31,373.4,0,-30,387.4,9,8,40,55,4,12,22,34,0,-1,-3,31
15,12,2,19,279.6,0,-12,321.6,55,20,100,55,4,0,22,22,3,0,0,19
15,13,5,21.2,350.6,0,-12,355.6,18,12,60,33,4,8,13.2,21.2,0,0,0,21.2
15,14,3,27.6,272.6,0,-12,339.6,80,10,50,44,4,10,17.6,27.6,0,0,0,27.6
15,15,1,13.2,247.6,0,-27,332.6,83,15,75,38,4,5,15.2,20.2,7,0,0,13.2
15,16,5,26.2,394.8,0,-39,408.8,0,7,35,33,4,13,13.2,26.2,0,0,0,26.2
15,17,4,30,351,0,-90,419,3,0,0,25,4,20,10,30,0,0,0,30
15,18,1,21.2,393.6,0,-57,425.6,0,5,25,38,4,15,15.2,30.2,0,-3,-9,21.2
15,19,4,25,375.2,0,-27,377.2,0,5,25,25,4,15,10,25,0,0,0,25
15,20,4,20,314.2,0,-99,388.2,0,10,50,25,4,10,10,20,0,0,0,20
16,1,2,21.4,381.4,0,-36,410.4,18,7,35,26,4,13,10.4,23.4,2,0,0,21.4
16,2,1,23,386,0,-60,426,5,7,35,40,4,13,16,29,0,-2,-6,23
16,3,3,26.6,373.8,0,-108,466.8,10,7,35,34,4,13,13.6,26.6,0,0,0,26.6
16,4,2,17.4,388.2,0,-12,389.2,14,12,60,26,4,8,10.4,18.4,1,0,0,17.4
16,5,1,24,380.8,0,-18,373.8,0,12,60,40,4,8,16,24,0,0,0,24
16,6,5,25.6,403.4,0,-57,440.4,5,9,45,44,4,11,17.6,28.6,0,-1,-3,25.6
16,7,2,19.4,367.2,0,-129,471.2,0,2,10,26,4,18,10.4,28.4,0,-3,-9,19.4
16,8,1,24,382.6,0,-84,443.6,2,10,50,40,4,10,16,26,2,0,0,24
16,9,5,27.6,351.2,0,0,326.2,0,10,50,44,4,10,17.6,27.6,0,0,0,27.6
16,10,4,22,315.4,0,0,290.4,0,20,100,55,4,0,22,22,0,0,0,22
16,11,3,23.6,397,0,-30,411,9,10,50,34,4,10,13.6,23.6,0,0,0,23.6
16,12,4,19,298.6,0,-12,343.6,58,20,100,55,4,0,22,22,3,0,0,19
16,13,1,25,375.6,0,-12,380.6,18,11,55,40,4,9,16,25,0,0,0,25
16,14,5,27.6,300.2,0,-12,367.2,80,10,50,44,4,10,17.6,27.6,0,0,0,27.6
16,15,5,21.6,269.2,0,-27,355.2,84,15,75,44,4,5,17.6,22.6,1,0,0,21.6
16,16,3,26.6,421.4,0,-39,435.4,0,7,35,34,4,13,13.6,26.6,0,0,0,26.6
16,17,4,29,380,0,-93,451,3,10,50,55,4,10,22,32,0,-1,-3,29
16,18,2,25.4,419,0,-57,451,0,5,25,26,4,15,10.4,25.4,0,0,0,25.4
16,19,4,31,406.2,0,-33,414.2,0,5,25,55,4,15,22,37,0,-2,-6,31
16,20,3,23.6,337.8,0,-99,411.8,0,10,50,34,4,10,13.6,23.6,0,0,0,23.6
17,1,4,28,409.4,0,-36,439.4,19,7,35,40,4,13,16,29,1,0,0,28
17,2,5,26.6,412.6,0,-60,452.6,5,7,35,34,4,13,13.6,26.6,0,0,0,26.6
17,3,3,25,398.8,0,-111,494.8,10,8,40,40,4,12,16,28,0,-1,-3,25
17,4,5,21.6,409.8,0,-12,410.8,14,12,60,34,4,8,13.6,21.6,0,0,0,21.6
17,5,5,20.6,401.4,0,-18,394.4,0,13,65,34,4,7,13.6,20.6,0,0,0,20.6
17,6,1,20.8,424.2,0,-57,463.2,7,10,50,32,4,10,12.8,22.8,2,0,0,20.8
17,7,5,31.6,398.8,0,-129,502.8,0,2,10,34,4,18,13.6,31.6,0,0,0,31.6
17,8,1,22.8,405.4,0,-84,466.4,2,10,50,32,4,10,12.8,22.8,0,0,0,22.8
17,9,3,24,375.2,0,0,350.2,0,12,60,40,4,8,16,24,0,0,0,24
17,10,4,16,331.4,0,0,306.4,0,20,100,40,4,0,16,16,0,0,0,16
17,11,4,28,425,0,-30,439,9,8,40,40,4,12,16,28,0,0,0,28
17,12,2,16.4,315,0,-12,364,62,20,100,51,4,0,20.4,20.4,4,0,0,16.4
17,13,2,23.4,399,0,-18,410,18,11,55,51,4,9,20.4,29.4,0,-2,-6,23.4
17,14,2,27.4,327.6,0,-15,397.6,80,10,50,51,4,10,20.4,30.4,0,-1,-3,27.4
17,15,3,18,287.2,0,-27,376.2,87,15,75,40,4,5,16,21,3,0,0,18
17,16,1,22.8,444.2,0,-42,461.2,0,7,35,32,4,13,12.8,25.8,0,-1,-3,22.8
17,17,1,24.8,404.8,0,-96,478.8,3,5,25,32,4,15,12.8,27.8,0,-1,-3,24.8
17,18,4,28,447,0,-60,482,0,5,25,40,4,15,16,31,0,-1,-3,28
17,19,3,25,431.2,0,-39,445.2,0,5,25,40,4,15,16,31,0,-2,-6,25
17,20,2,27.4,365.2,0,-102,442.2,0,10,50,51,4,10,20.4,30.4,0,-1,-3,27.4
18,1,1,25.4,434.8,0,-36,466.8,21,7,35,36,4,13,14.4,27.4,2,0,0,25.4
18,2,2,34.4,447,0,-60,487,5,6,30,51,4,14,20.4,34.4,0,0,0,34.4
18,3,3,22.2,421,0,-114,520,10,8,40,33,4,12,13.2,25.2,0,-1,-3,22.2
18,4,4,21.6,431.4,0,-15,435.4,14,7,35,29,4,13,11.6,24.6,0,-1,-3,21.6
18,5,1,22.4,423.8,0,-18,416.8,0,12,60,36,4,8,14.4,22.4,0,0,0,22.4
18,6,5,23,447.2,0,-57,487.2,8,10,50,35,4,10,14,24,1,0,0,23
18,7,1,26.4,425.2,0,-135,535.2,0,2,10,36,4,18,14.4,32.4,0,-2,-6,26.4
18,8,3,23.2,428.6,0,-84,489.6,2,10,50,33,4,10,13.2,23.2,0,0,0,23.2
18,9,2,25.4,400.6,0,0,375.6,0,15,75,51,4,5,20.4,25.4,0,0,0,25.4
18,10,2,20.4,351.8,0,0,326.8,0,20,100,51,4,0,20.4,20.4,0,0,0,20.4
18,11,5,26,451,0,-30,465,9,8,40,35,4,12,14,26,0,0,0,26
18,12,3,3.2,318.2,0,-42,397.2,62,0,0,33,4,20,13.2,33.2,0,-10,-30,3.2
18,13,5,21,420,0,-18,432,19,12,60,35,4,8,14,22,1,0,0,21
18,14,4,16.6,344.2,0,-15,419.2,85,10,50,29,4,10,11.6,21.6,5,0,0,16.6
18,15,3,7.2,294.4,0,-27,394.4,98,15,75,33,4,5,13.2,18.2,11,0,0,7.2
18,16,4,21.6,465.8,0,-45,485.8,0,7,35,29,4,13,11.6,24.6,0,-1,-3,21.6
18,17,2,30.4,435.2,0,-96,509.2,3,10,50,51,4,10,20.4,30.4,0,0,0,30.4
18,18,4,17.6,464.6,0,-69,508.6,0,5,25,29,4,15,11.6,26.6,0,-3,-9,17.6
18,19,5,23,454.2,0,-45,474.2,0,5,25,35,4,15,14,29,0,-2,-6,23
18,20,1,19.4,384.6,0,-102,461.6,0,15,75,36,4,5,14.4,19.4,0,0,0,19.4
19,1,5,16.4,451.2,0,-39,489.2,24,8,40,26,4,12,10.4,22.4,3,-1,-3,16.4
19,2,4,24,471,0,-60,511,5,6,30,25,4,14,10,24,0,0,0,24
19,3,4,21,442,0,-114,541,10,9,45,25,4,11,10,21,0,0,0,21
19,4,2,28.8,460.2,0,-15,464.2,14,10,50,47,4,10,18.8,28.8,0,0,0,28.8
19,5,1,26.2,450,0,-18,443,0,13,65,48,4,7,19.2,26.2,0,0,0,26.2
19,6,4,30,477.2,0,-57,517.2,8,0,0,25,4,20,10,30,0,0,0,30
19,7,1,39.2,464.4,0,-135,574.4,0,0,0,48,4,20,19.2,39.2,0,0,0,39.2
19,8,2,28.8,457.4,0,-84,518.4,2,10,50,47,4,10,18.8,28.8,0,0,0,28.8
19,9,1,24.2,424.8,0,0,399.8,0,15,75,48,4,5,19.2,24.2,0,0,0,24.2
19,10,1,19.2,371,0,0,346,0,20,100,48,4,0,19.2,19.2,0,0,0,19.2
19,11,5,18.4,469.4,0,-33,487.4,10,8,40,26,4,12,10.4,22.4,1,-1,-3,18.4
19,12,5,-11.6,306.6,0,-84,427.6,62,0,0,26,4,20,10.4,30.4,0,-14,-42,-11.6
19,13,2,26.8,446.8,0,-18,458.8,19,12,60,47,4,8,18.8,26.8,0,0,0,26.8
19,14,5,8.4,352.6,0,-15,439.6,97,10,50,26,4,10,10.4,20.4,12,0,0,8.4
19,15,2,23.8,318.2,0,-27,418.2,98,15,75,47,4,5,18.8,23.8,0,0,0,23.8
19,16,3,24.6,490.4,0,-45,510.4,0,7,35,29,4,13,11.6,24.6,0,0,0,24.6
19,17,3,19.6,454.8,0,-96,528.8,3,12,60,29,4,8,11.6,19.6,0,0,0,19.6
19,18,3,26.6,491.2,0,-69,535.2,0,5,25,29,4,15,11.6,26.6,0,0,0,26.6
19,19,3,26.6,480.8,0,-45,500.8,0,5,25,29,4,15,11.6,26.6,0,0,0,26.6
19,20,4,20,404.6,0,-102,481.6,0,10,50,25,4,10,10,20,0,0,0,20
20,1,3,18.2,469.4,1,-42,512.4,26,8,40,28,4,12,11.2,23.2,2,-1,-3,18.2
20,2,4,25,496,1,-60,536,5,5,25,25,4,15,10,25,0,0,0,25
20,3,3,-4.8,437.2,1,-150,572.2,10,0,0,28,4,20,11.2,31.2,0,-12,-36,-4.8
20,4,4,17,477.2,1,-15,482.2,15,12,60,25,4,8,10,18,1,0,0,17
20,5,5,21.4,471.4,1,-18,464.4,0,13,65,36,4,7,14.4,21.4,0,0,0,21.4
20,6,5,27.4,504.6,1,-57,544.6,8,7,35,36,4,13,14.4,27.4,0,0,0,27.4
20,7,2,11.8,476.2,1,-150,601.2,0,2,10,22,4,18,8.8,26.8,0,-5,-15,11.8
20,8,3,21.2,478.6,1,-84,539.6,2,10,50,28,4,10,11.2,21.2,0,0,0,21.2
20,9,1,30,454.8,1,0,429.8,0,8,40,45,4,12,18,30,0,0,0,30
20,10,1,18,389,1,0,364,0,20,100,45,4,0,18,18,0,0,0,18
20,11,4,21,490.4,1,-33,509.4,11,8,40,25,4,12,10,22,1,0,0,21
20,12,4,24,330.6,1,-90,457.6,62,0,0,25,4,20,10,30,0,-2,-6,24
20,13,1,25,471.8,1,-18,484.8,20,12,60,45,4,8,18,26,1,0,0,25
20,14,3,10.2,362.8,1,-15,460.8,108,10,50,28,4,10,11.2,21.2,11,0,0,10.2
20,15,2,-4.2,314,1,-27,432,116,15,75,22,4,5,8.8,13.8,18,0,0,-4.2
20,16,5,28.4,518.8,1,-45,538.8,0,6,30,36,4,14,14.4,28.4,0,0,0,28.4
20,17,2,-1.2,453.6,1,-126,557.6,3,0,0,22,4,20,8.8,28.8,0,-10,-30,-1.2
20,18,1,30,521.2,1,-72,568.2,0,5,25,45,4,15,18,33,0,-1,-3,30
20,19,2,14.8,495.6,1,-54,524.6,0,5,25,22,4,15,8.8,23.8,0,-3,-9,14.8
20,20,5,24.4,429,1,-102,506,0,10,50,36,4,10,14.4,24.4,0,0,0,24.4
