Period,Subject,Group,Profit,TotalProfit,Participate,Total_Deduct,Total_First_Income,Total_Cost,contribution,TimeOKStage1OK,percentContribution,sumContribution,Profit1Own,Profit1Group,Profit1,TimeOKProfitDisplayStage1OK,Cost,TimeOKStage2OK,ReceivedPoints,Reduction,Profit2,Temp_Profit,TimeOKProfitDisplayStage2OK,TotalProfitEnd,TimeCalculateCostsStage2OK
1,1,6,23.6,48.6,0,0,27.6,4,20,40,100,69,0,27.6,27.6,38,4,50,0,0,23.6,23.6,39,23.6,54
1,2,3,18.6,43.6,0,-15,33.6,0,4,35,20,44,16,17.6,33.6,32,0,102,-5,-15,18.6,33.6,38,18.6,103
1,3,4,10.8,35.8,0,0,15.8,5,15,40,75,27,5,10.8,15.8,31,5,82,0,0,10.8,10.8,38,10.8,89
1,4,5,11.2,36.2,0,0,19.2,8,20,44,100,48,0,19.2,19.2,31,8,87,0,0,11.2,11.2,34,11.2,92
1,5,1,24.8,49.8,0,-3,27.8,0,7,36,35,37,13,14.8,27.8,9,0,93,-1,-3,24.8,27.8,27,24.8,99
1,6,1,23.8,48.8,0,-6,29.8,0,5,48,25,37,15,14.8,29.8,34,0,107,-2,-6,23.8,29.8,37,23.8,114
1,7,3,23.6,48.6,0,-3,27.6,1,10,46,50,44,10,17.6,27.6,24,1,44,-1,-3,23.6,26.6,37,23.6,56
1,8,1,13.8,38.8,0,0,17.8,4,17,46,85,37,3,14.8,17.8,14,4,80,0,0,13.8,13.8,38,13.8,82
1,9,2,26,51,0,0,28,2,20,42,100,70,0,28,28,33,2,78,0,0,26,26,36,26,84
1,10,2,26,51,0,0,28,2,20,40,100,70,0,28,28,25,2,99,0,0,26,26,38,26,104
1,11,6,27.6,52.6,0,0,27.6,0,20,34,100,69,0,27.6,27.6,35,0,90,0,0,27.6,27.6,37,27.6,92
1,12,4,25.8,50.8,0,0,25.8,0,5,30,25,27,15,10.8,25.8,16,0,87,0,0,25.8,25.8,30,25.8,94
1,13,1,23.8,48.8,0,-3,26.8,0,8,45,40,37,12,14.8,26.8,32,0,106,-1,-3,23.8,26.8,37,23.8,109
1,14,6,27.6,52.6,0,0,27.6,0,20,47,100,69,0,27.6,27.6,34,0,105,0,0,27.6,27.6,37,27.6,109
1,15,5,22.2,47.2,0,-12,34.2,0,5,40,25,48,15,19.2,34.2,0,0,82,-4,-12,22.2,34.2,34,22.2,91
1,16,6,26.6,51.6,0,-12,38.6,0,9,38,45,69,11,27.6,38.6,34,0,112,-4,-12,26.6,38.6,39,26.6,114
1,17,4,13.8,38.8,0,-15,28.8,0,2,44,10,27,18,10.8,28.8,35,0,107,-5,-15,13.8,28.8,36,13.8,108
1,18,2,28,53,0,0,28,0,20,45,100,70,0,28,28,37,0,115,0,0,28,28,39,28,116
1,19,2,26,51,0,-12,38,0,10,45,50,70,10,28,38,36,0,114,-4,-12,26,38,38,26,115
1,20,3,23.6,48.6,0,-3,27.6,1,10,47,50,44,10,17.6,27.6,19,1,103,-1,-3,23.6,26.6,38,23.6,105
1,21,4,25.8,50.8,0,0,25.8,0,5,45,25,27,15,10.8,25.8,30,0,107,0,0,25.8,25.8,38,25.8,108
1,22,5,24.2,49.2,0,-12,36.2,0,3,47,15,48,17,19.2,36.2,31,0,109,-4,-12,24.2,36.2,21,24.2,111
1,23,5,19.2,44.2,0,0,19.2,0,20,43,100,48,0,19.2,19.2,31,0,98,0,0,19.2,19.2,39,19.2,101
1,24,3,12.6,37.6,0,0,17.6,5,20,44,100,44,0,17.6,17.6,24,5,47,0,0,12.6,12.6,29,12.6,51
2,1,6,26,74.6,0,0,55.6,6,20,28,100,70,0,28,28,18,2,46,0,0,26,26,9,49.6,47
2,2,3,27.8,71.4,0,-15,61.4,0,7,21,35,37,13,14.8,27.8,15,0,47,0,0,27.8,27.8,9,46.4,48
2,3,2,22,57.8,0,-12,49.8,5,10,28,50,60,10,24,34,15,0,45,-4,-12,22,34,7,32.8,46
2,4,4,14.6,50.8,0,0,41.8,16,15,28,75,44,5,17.6,22.6,12,8,33,0,0,14.6,14.6,8,25.8,34
2,5,4,18.6,68.4,0,-12,55.4,0,10,20,50,44,10,17.6,27.6,6,0,39,-3,-9,18.6,27.6,6,43.4,47
2,6,4,18.6,67.4,0,-15,57.4,0,10,28,50,44,10,17.6,27.6,17,0,46,-3,-9,18.6,27.6,9,42.4,53
2,7,6,23,71.6,0,-18,65.6,1,10,25,50,70,10,28,38,15,0,32,-5,-15,23,38,7,46.6,34
2,8,5,25.2,64,0,0,46,7,13,28,65,53,7,21.2,28.2,0,3,31,0,0,25.2,25.2,9,39,41
2,9,5,18.2,69.2,0,0,49.2,5,20,26,100,53,0,21.2,21.2,15,3,37,0,0,18.2,18.2,5,44.2,39
2,10,6,27,78,0,0,56,3,20,27,100,70,0,28,28,17,1,53,0,0,27,27,9,53,54
2,11,6,26,78.6,0,0,55.6,2,20,28,100,70,0,28,28,16,2,36,0,0,26,26,9,53.6,38
2,12,3,28.8,79.6,0,0,54.6,0,6,20,30,37,14,14.8,28.8,12,0,45,0,0,28.8,28.8,7,54.6,47
2,13,4,22.6,71.4,0,-9,55.4,0,9,28,45,44,11,17.6,28.6,12,0,48,-2,-6,22.6,28.6,9,46.4,51
2,14,5,21.2,73.8,0,0,48.8,0,20,26,100,53,0,21.2,21.2,16,0,44,0,0,21.2,21.2,5,48.8,46
2,15,2,22,69.2,0,-24,68.2,0,10,21,50,60,10,24,34,15,0,54,-4,-12,22,34,4,44.2,54
2,16,3,13.8,65.4,0,-12,53.4,1,20,28,100,37,0,14.8,14.8,10,1,34,0,0,13.8,13.8,9,40.4,36
2,17,1,28.8,67.6,0,-21,63.6,0,0,28,0,37,20,14.8,34.8,15,0,53,-2,-6,28.8,34.8,9,42.6,55
2,18,1,14.8,67.8,0,0,42.8,0,20,29,100,37,0,14.8,14.8,16,0,52,0,0,14.8,14.8,9,42.8,53
2,19,2,20,71,0,-12,62,4,20,28,100,60,0,24,24,16,4,45,0,0,20,20,10,46,48
2,20,1,20.8,69.4,0,-3,50.4,3,12,23,60,37,8,14.8,22.8,16,2,38,0,0,20.8,20.8,8,44.4,39
2,21,1,29.8,80.6,0,0,55.6,0,5,28,25,37,15,14.8,29.8,14,0,53,0,0,29.8,29.8,8,55.6,54
2,22,3,27.8,77,0,-15,67,0,4,22,20,37,16,14.8,30.8,15,0,50,-1,-3,27.8,30.8,9,52,55
2,23,5,23.2,67.4,0,-18,60.4,0,0,28,0,53,20,21.2,41.2,11,0,50,-6,-18,23.2,41.2,9,42.4,50
2,24,2,20,57.6,0,0,41.6,9,20,28,100,60,0,24,24,17,4,48,0,0,20,20,5,32.6,48
3,1,1,24.8,99.4,0,0,82.4,8,20,28,100,67,0,26.8,26.8,18,2,34,0,0,24.8,24.8,6,74.4,39
3,2,6,24.4,95.8,0,-24,94.8,0,5,28,25,46,15,18.4,33.4,20,0,51,-3,-9,24.4,33.4,99999,70.8,52
3,3,1,23.8,81.6,0,-12,76.6,8,20,30,100,67,0,26.8,26.8,16,3,47,0,0,23.8,23.8,10,56.6,49
3,4,5,16,66.8,0,-15,72.8,16,15,29,75,65,5,26,31,14,0,42,-5,-15,16,31,10,41.8,47
3,5,4,28,96.4,0,-18,89.4,0,12,26,60,65,8,26,34,14,0,42,-2,-6,28,34,10,71.4,43
3,6,5,36,103.4,0,-15,93.4,0,10,28,50,65,10,26,36,14,0,47,0,0,36,36,10,78.4,47
3,7,3,21.2,92.8,0,-18,86.8,1,20,29,100,53,0,21.2,21.2,16,0,42,0,0,21.2,21.2,10,67.8,48
3,8,2,18.8,82.8,0,0,67.8,10,15,28,75,42,5,16.8,21.8,9,3,39,0,0,18.8,18.8,10,57.8,40
3,9,3,18.2,87.4,0,0,70.4,8,20,27,100,53,0,21.2,21.2,14,3,35,0,0,18.2,18.2,7,62.4,35
3,10,2,13.8,91.8,0,0,72.8,6,20,29,100,42,0,16.8,16.8,11,3,35,0,0,13.8,13.8,4,66.8,37
3,11,5,21,99.6,0,0,81.6,7,20,28,100,65,0,26,26,17,5,45,0,0,21,21,10,74.6,47
3,12,6,25.4,105,0,-6,86,0,7,25,35,46,13,18.4,31.4,9,0,44,-2,-6,25.4,31.4,10,80,50
3,13,3,31.2,102.6,0,-9,86.6,0,10,29,50,53,10,21.2,31.2,16,0,50,0,0,31.2,31.2,10,77.6,50
3,14,5,26,99.8,0,0,74.8,0,20,28,100,65,0,26,26,16,0,50,0,0,26,26,6,74.8,53
3,15,1,18.8,88,0,-42,105,0,10,27,50,67,10,26.8,36.8,16,0,48,-6,-18,18.8,36.8,10,63,50
3,16,1,28.8,94.2,0,-12,83.2,2,17,26,85,67,3,26.8,29.8,16,1,51,0,0,28.8,28.8,10,69.2,52
3,17,2,22.8,90.4,0,-33,98.4,0,2,28,10,42,18,16.8,34.8,17,0,55,-4,-12,22.8,34.8,10,65.4,56
3,18,4,26,93.8,0,0,68.8,0,20,28,100,65,0,26,26,19,0,56,0,0,26,26,10,68.8,57
3,19,4,22,93,0,-12,88,8,20,28,100,65,0,26,26,19,4,51,0,0,22,22,10,68,52
3,20,6,20.4,89.8,0,-6,74.8,4,14,21,70,46,6,18.4,24.4,14,1,49,-1,-3,20.4,23.4,10,64.8,50
3,21,2,25.8,106.4,0,-6,87.4,0,5,30,25,42,15,16.8,31.8,12,0,56,-2,-6,25.8,31.8,10,81.4,57
3,22,3,29.2,106.2,0,-24,105.2,0,3,28,15,53,17,21.2,38.2,17,0,55,-3,-9,29.2,38.2,6,81.2,56
3,23,4,27,94.4,0,-24,93.4,0,13,27,65,65,7,26,33,1,0,53,-2,-6,27,33,7,69.4,53
3,24,6,13.4,71,0,0,60,14,20,28,100,46,0,18.4,18.4,18,5,35,0,0,13.4,13.4,10,46,43
4,1,1,28,127.4,0,0,112.4,10,20,29,100,75,0,30,30,19,2,31,0,0,28,28,6,102.4,31
4,2,5,28,123.8,0,-27,125.8,0,7,30,35,45,13,18,31,17,0,52,-1,-3,28,31,8,98.8,53
4,3,5,18,99.6,0,-12,99.6,13,15,29,75,45,5,18,23,18,5,35,0,0,18,18,10,74.6,36
4,4,1,26,92.8,0,-24,107.8,16,15,25,75,75,5,30,35,17,0,57,-3,-9,26,35,10,67.8,58
4,5,4,26,122.4,0,-18,115.4,0,20,25,100,65,0,26,26,13,0,48,0,0,26,26,8,97.4,53
4,6,6,26.2,129.6,0,-21,125.6,0,15,29,75,68,5,27.2,32.2,18,0,55,-2,-6,26.2,32.2,8,104.6,57
4,7,4,33,125.8,0,-21,122.8,1,10,29,50,65,10,26,36,17,0,49,-1,-3,33,36,6,100.8,50
4,8,6,26.2,109,0,-6,100,10,15,25,75,68,5,27.2,32.2,10,0,51,-2,-6,26.2,32.2,5,84,54
4,9,2,20.4,107.8,0,0,93.8,11,15,28,75,46,5,18.4,23.4,16,3,43,0,0,20.4,20.4,7,82.8,44
4,10,3,24.2,116,0,0,98,7,20,26,100,63,0,25.2,25.2,0,1,46,0,0,24.2,24.2,8,91,48
4,11,6,21.2,120.8,0,0,108.8,13,20,29,100,68,0,27.2,27.2,20,6,14,0,0,21.2,21.2,9,95.8,18
4,12,2,25.4,130.4,0,-6,111.4,0,13,25,65,46,7,18.4,25.4,11,0,51,0,0,25.4,25.4,6,105.4,54
4,13,3,32.2,134.8,0,-9,118.8,0,13,27,65,63,7,25.2,32.2,18,0,52,0,0,32.2,32.2,10,109.8,54
4,14,3,25.2,125,0,0,100,0,20,29,100,63,0,25.2,25.2,17,0,51,0,0,25.2,25.2,9,100,54
4,15,1,30,118,0,-42,135,0,20,26,100,75,0,30,30,18,0,55,0,0,30,30,7,93,56
4,16,6,23.2,117.4,0,-18,112.4,2,18,25,90,68,2,27.2,29.2,18,0,49,-2,-6,23.2,29.2,8,92.4,50
4,17,5,23,113.4,0,-45,133.4,0,3,24,15,45,17,18,35,18,0,56,-4,-12,23,35,9,88.4,57
4,18,4,26,119.8,0,0,94.8,0,20,29,100,65,0,26,26,20,0,56,0,0,26,26,7,94.8,56
4,19,2,21.4,114.4,0,-12,111.4,10,15,29,75,46,5,18.4,23.4,18,2,49,0,0,21.4,21.4,10,89.4,50
4,20,4,30,119.8,0,-6,105.8,5,15,28,75,65,5,26,31,16,1,49,0,0,30,30,4,94.8,50
4,21,3,32.2,138.6,0,-9,122.6,0,10,30,50,63,10,25.2,35.2,14,0,56,-1,-3,32.2,35.2,10,113.6,57
4,22,2,20.4,126.6,0,-39,140.6,0,3,25,15,46,17,18.4,35.4,17,0,54,-5,-15,20.4,35.4,9,101.6,57
4,23,5,18,112.4,0,-24,111.4,0,20,29,100,45,0,18,18,16,0,51,0,0,18,18,10,87.4,52
4,24,1,29,100,0,0,90,15,20,26,100,75,0,30,30,18,1,52,0,0,29,29,9,75,54
5,1,3,28,155.4,0,0,142.4,12,20,28,100,75,0,30,30,20,2,50,0,0,28,28,10,130.4,51
5,2,1,26.8,150.6,0,-36,161.6,0,7,30,35,57,13,22.8,35.8,18,0,54,-3,-9,26.8,35.8,10,125.6,58
5,3,4,25.2,124.8,0,-12,127.8,16,15,99999,75,58,5,23.2,28.2,18,3,44,0,0,25.2,25.2,10,99.8,49
5,4,3,28,120.8,0,-24,137.8,18,20,30,100,75,0,30,30,17,2,52,0,0,28,28,10,95.8,53
5,5,6,21.2,143.6,0,-18,136.6,0,20,28,100,53,0,21.2,21.2,15,0,55,0,0,21.2,21.2,10,118.6,56
5,6,6,23.2,152.8,0,-21,148.8,0,18,29,90,53,2,21.2,23.2,13,0,52,0,0,23.2,23.2,4,127.8,52
5,7,2,29.2,155,0,-24,155,1,15,28,75,68,5,27.2,32.2,15,0,51,-1,-3,29.2,32.2,0,130,52
5,8,1,24.8,133.8,0,-6,126.8,12,16,30,80,57,4,22.8,26.8,13,2,39,0,0,24.8,24.8,10,108.8,40
5,9,1,27.8,135.6,0,0,122.6,12,14,23,70,57,6,22.8,28.8,18,1,41,0,0,27.8,27.8,9,110.6,42
5,10,4,20.2,136.2,0,0,121.2,10,20,29,100,58,0,23.2,23.2,12,3,39,0,0,20.2,20.2,8,111.2,42
5,11,5,15.6,136.4,0,0,134.4,23,20,27,100,64,0,25.6,25.6,20,10,44,0,0,15.6,15.6,10,111.4,44
5,12,5,8.6,139,0,-36,150,0,7,28,35,64,13,25.6,38.6,18,0,46,-10,-30,8.6,38.6,8,114,48
5,13,4,22.2,157,0,-9,142,1,20,29,100,58,0,23.2,23.2,18,1,48,0,0,22.2,22.2,10,132,49
5,14,2,27.2,152.2,0,0,127.2,0,20,29,100,68,0,27.2,27.2,18,0,51,0,0,27.2,27.2,10,127.2,54
5,15,1,22.8,140.8,0,-42,157.8,0,20,25,100,57,0,22.8,22.8,17,0,49,0,0,22.8,22.8,10,115.8,50
5,16,5,28.6,146,0,-18,141,2,17,29,85,64,3,25.6,28.6,18,0,49,0,0,28.6,28.6,10,121,50
5,17,6,29.2,142.6,0,-57,174.6,0,0,29,0,53,20,21.2,41.2,19,0,57,-4,-12,29.2,41.2,10,117.6,58
5,18,5,25.6,145.4,0,0,120.4,0,20,28,100,64,0,25.6,25.6,19,0,55,0,0,25.6,25.6,10,120.4,56
5,19,6,22.2,136.6,0,-12,137.6,14,15,28,75,53,5,21.2,26.2,17,4,49,0,0,22.2,22.2,10,111.6,50
5,20,3,30,149.8,0,-6,135.8,5,20,28,100,75,0,30,30,17,0,43,0,0,30,30,8,124.8,44
5,21,3,23,161.6,0,-21,157.6,0,15,29,75,75,5,30,35,8,0,52,-4,-12,23,35,6,136.6,53
5,22,4,19.2,145.8,0,-60,180.8,0,3,25,15,58,17,23.2,40.2,17,0,56,-7,-21,19.2,40.2,8,120.8,57
5,23,2,28.2,140.6,0,-30,145.6,0,13,28,65,68,7,27.2,34.2,17,0,54,-2,-6,28.2,34.2,10,115.6,55
5,24,2,24.2,124.2,0,0,117.2,18,20,30,100,68,0,27.2,27.2,18,3,50,0,0,24.2,24.2,10,99.2,51
6,1,2,24.6,180,0,0,170,15,20,28,100,69,0,27.6,27.6,19,3,33,0,0,24.6,24.6,10,155,34
6,2,4,27.2,177.8,0,-36,190.8,2,10,28,50,48,10,19.2,29.2,20,2,43,0,0,27.2,27.2,9,152.8,48
6,3,1,28.4,153.2,0,-12,158.2,18,20,21,100,76,0,30.4,30.4,18,2,49,0,0,28.4,28.4,9,128.2,50
6,4,3,20,140.8,0,-24,161.8,22,20,29,100,60,0,24,24,16,4,50,0,0,20,20,9,115.8,52
6,5,5,17.4,161,0,-39,175,0,0,29,0,46,20,18.4,38.4,18,0,54,-7,-21,17.4,38.4,9,136,55
6,6,3,26,178.8,0,-21,174.8,0,18,27,90,60,2,24,26,14,0,55,0,0,26,26,10,153.8,55
6,7,3,26,181,0,-24,182,2,17,28,85,60,3,24,27,18,1,39,0,0,26,26,9,156,48
6,8,5,18.4,152.2,0,-6,149.2,16,16,28,80,46,4,18.4,22.4,18,4,38,0,0,18.4,18.4,10,127.2,39
6,9,6,26.6,162.2,0,-9,158.2,12,14,27,70,74,6,29.6,35.6,13,0,53,-3,-9,26.6,35.6,9,137.2,54
6,10,1,18.4,154.6,0,-15,154.6,10,17,26,85,76,3,30.4,33.4,6,0,49,-5,-15,18.4,33.4,7,129.6,50
6,11,1,26.4,162.8,0,0,164.8,27,20,28,100,76,0,30.4,30.4,20,4,39,0,0,26.4,26.4,10,137.8,41
6,12,1,28.4,167.4,0,-39,181.4,0,19,26,95,76,1,30.4,31.4,16,0,52,-1,-3,28.4,31.4,7,142.4,53
6,13,2,26.6,183.6,0,-18,177.6,1,12,28,60,69,8,27.6,35.6,19,0,54,-3,-9,26.6,35.6,9,158.6,55
6,14,6,29.6,181.8,0,0,156.8,0,20,29,100,74,0,29.6,29.6,18,0,51,0,0,29.6,29.6,9,156.8,52
6,15,2,30.6,171.4,0,-42,188.4,0,17,23,85,69,3,27.6,30.6,15,0,52,0,0,30.6,30.6,10,146.4,53
6,16,4,23.2,169.2,0,-18,164.2,2,16,25,80,48,4,19.2,23.2,6,0,52,0,0,23.2,23.2,6,144.2,53
6,17,3,24,166.6,0,-72,213.6,0,5,29,25,60,15,24,39,19,0,56,-5,-15,24,39,9,141.6,58
6,18,2,27.6,173,0,0,148,0,20,28,100,69,0,27.6,27.6,20,0,56,0,0,27.6,27.6,9,148,57
6,19,5,21.4,158,0,-15,166,18,10,28,50,46,10,18.4,28.4,19,4,52,-1,-3,21.4,24.4,10,133,53
6,20,4,9.2,159,0,-6,155,15,20,26,100,48,0,19.2,19.2,13,10,45,0,0,9.2,9.2,9,134,46
6,21,6,29.6,191.2,0,-21,187.2,0,20,24,100,74,0,29.6,29.6,14,0,57,0,0,29.6,29.6,8,166.2,58
6,22,4,1.2,147,0,-96,218,0,2,21,10,48,18,19.2,37.2,18,0,55,-12,-36,1.2,37.2,10,122,56
6,23,5,18.4,159,0,-30,164,0,20,29,100,46,0,18.4,18.4,18,0,55,0,0,18.4,18.4,9,134,56
6,24,6,26.6,150.8,0,0,146.8,21,20,28,100,74,0,29.6,29.6,19,3,46,0,0,26.6,26.6,9,125.8,47
7,1,4,32,212,0,0,202,15,20,29,100,80,0,32,32,19,0,55,0,0,32,32,10,187,55
7,2,5,24.4,202.2,0,-36,217.2,4,10,26,50,41,10,16.4,26.4,20,2,48,0,0,24.4,24.4,10,177.2,49
7,3,5,15.4,168.6,0,-12,176.6,21,18,24,90,41,2,16.4,18.4,18,3,49,0,0,15.4,15.4,9,143.6,50
7,4,3,22.2,163,0,-24,187,25,20,29,100,63,0,25.2,25.2,20,3,41,0,0,22.2,22.2,7,138,43
7,5,5,15.4,176.4,0,-60,211.4,0,0,29,0,41,20,16.4,36.4,17,0,51,-7,-21,15.4,36.4,10,151.4,55
7,6,2,28,206.8,0,-21,202.8,0,12,24,60,50,8,20,28,15,0,55,0,0,28,28,10,181.8,55
7,7,6,28,209,0,-24,211,3,15,26,75,60,5,24,29,17,1,41,0,0,28,28,8,184,50
7,8,2,23,175.2,0,-6,174.2,18,15,26,75,50,5,20,25,15,2,42,0,0,23,23,5,150.2,42
7,9,5,21.4,183.6,0,-9,181.6,14,13,27,65,41,7,16.4,23.4,18,2,41,0,0,21.4,21.4,9,158.6,42
7,10,4,32,186.6,0,-15,186.6,10,20,29,100,80,0,32,32,16,0,57,0,0,32,32,10,161.6,58
7,11,1,18,180.8,0,0,192.8,37,20,29,100,70,0,28,28,20,10,46,0,0,18,18,10,155.8,47
7,12,1,28,195.4,0,-39,209.4,0,20,25,100,70,0,28,28,18,0,50,0,0,28,28,7,170.4,52
7,13,3,28.2,211.8,0,-18,205.8,1,17,29,85,63,3,25.2,28.2,19,0,53,0,0,28.2,28.2,10,186.8,55
7,14,6,22,203.8,0,0,180.8,2,20,29,100,60,0,24,24,20,2,43,0,0,22,22,9,178.8,48
7,15,6,24,195.4,0,-42,212.4,0,20,29,100,60,0,24,24,19,0,51,0,0,24,24,10,170.4,52
7,16,3,29.2,198.4,0,-18,193.4,2,16,26,80,63,4,25.2,29.2,19,0,55,0,0,29.2,29.2,10,173.4,55
7,17,6,30,196.6,0,-81,252.6,0,5,29,25,60,15,24,39,19,0,50,-3,-9,30,39,10,171.6,51
7,18,4,32,205,0,0,180,0,20,29,100,80,0,32,32,19,0,57,0,0,32,32,10,180,58
7,19,1,-1,157,0,-54,204,18,10,29,50,70,10,28,38,20,0,57,-13,-39,-1,38,10,132,58
7,20,4,32,191,0,-6,187,15,20,29,100,80,0,32,32,19,0,56,0,0,32,32,7,166,57
7,21,3,26.2,217.4,0,-30,222.4,0,10,27,50,63,10,25.2,35.2,12,0,53,-3,-9,26.2,35.2,10,192.4,55
7,22,2,25,172,0,-108,255,0,3,29,15,50,17,20,37,18,0,55,-4,-12,25,37,10,147,55
7,23,2,18,177,0,-30,184,2,20,29,100,50,0,20,20,16,2,37,0,0,18,18,1,152,39
7,24,1,25,175.8,0,0,174.8,24,20,29,100,70,0,28,28,20,3,50,0,0,25,25,9,150.8,51
8,1,1,26,238,0,0,230,17,20,29,100,70,0,28,28,20,2,25,0,0,26,26,9,213,26
8,2,5,23.4,225.6,0,-36,242.6,6,7,30,35,31,13,12.4,25.4,19,2,47,0,0,23.4,23.4,9,200.6,47
8,3,1,24,192.6,0,-21,209.6,21,15,26,75,70,5,28,33,19,0,45,-3,-9,24,33,8,167.6,45
8,4,6,28,191,0,-24,217,27,20,29,100,75,0,30,30,19,2,53,0,0,28,28,8,166,54
8,5,4,19,195.4,0,-81,251.4,0,0,29,0,50,20,20,40,18,0,57,-7,-21,19,40,9,170.4,57
8,6,5,20.4,227.2,0,-21,223.2,0,12,29,60,31,8,12.4,20.4,15,0,57,0,0,20.4,20.4,10,202.2,58
8,7,6,29,238,0,-30,246,3,15,23,75,75,5,30,35,18,0,52,-2,-6,29,35,10,213,57
8,8,3,27.6,202.8,0,-6,202.8,19,15,29,75,59,5,23.6,28.6,18,1,50,0,0,27.6,27.6,10,177.8,51
8,9,3,25.6,209.2,0,-12,211.2,15,14,25,70,59,6,23.6,29.6,17,1,50,-1,-3,25.6,28.6,9,184.2,51
8,10,4,17,203.6,0,-15,206.6,13,20,29,100,50,0,20,20,8,3,37,0,0,17,17,9,178.6,37
8,11,1,24,204.8,0,0,220.8,41,20,29,100,70,0,28,28,19,4,45,0,0,24,24,9,179.8,46
8,12,4,20,215.4,0,-39,229.4,0,20,26,100,50,0,20,20,17,0,51,0,0,20,20,4,190.4,54
8,13,1,24,235.8,0,-27,238.8,1,15,24,75,70,5,28,33,17,0,57,-3,-9,24,33,10,210.8,57
8,14,6,30,233.8,0,0,210.8,2,20,29,100,75,0,30,30,19,0,57,0,0,30,30,9,208.8,57
8,15,6,30,225.4,0,-42,242.4,0,20,29,100,75,0,30,30,20,0,54,0,0,30,30,10,200.4,54
8,16,2,31.4,229.8,0,-21,227.8,2,16,25,80,76,4,30.4,34.4,18,0,58,-1,-3,31.4,34.4,9,204.8,58
8,17,5,22.4,219,0,-81,275,0,10,29,50,31,10,12.4,22.4,18,0,57,0,0,22.4,22.4,10,194,58
8,18,2,30.4,235.4,0,0,210.4,0,20,29,100,76,0,30.4,30.4,20,0,57,0,0,30.4,30.4,10,210.4,58
8,19,4,26,183,0,-54,234,22,10,29,50,50,10,20,30,20,4,54,0,0,26,26,10,158,57
8,20,2,29.4,220.4,0,-6,217.4,16,20,26,100,76,0,30.4,30.4,18,1,49,0,0,29.4,29.4,7,195.4,49
8,21,3,21.6,239,0,-42,256,0,10,27,50,59,10,23.6,33.6,9,0,57,-4,-12,21.6,33.6,9,214,57
8,22,5,24.4,196.4,0,-114,285.4,0,2,26,10,31,18,12.4,30.4,18,0,57,-2,-6,24.4,30.4,10,171.4,57
8,23,2,30.4,207.4,0,-30,214.4,2,20,29,100,76,0,30.4,30.4,19,0,57,0,0,30.4,30.4,10,182.4,57
8,24,3,20.6,196.4,0,0,198.4,27,20,29,100,59,0,23.6,23.6,20,3,47,0,0,20.6,20.6,10,171.4,48
9,1,6,26,264,0,0,258,19,20,29,100,70,0,28,28,19,2,28,0,0,26,26,10,239,29
9,2,3,25,250.6,0,-36,269.6,8,7,29,35,35,13,14,27,17,2,51,0,0,25,25,10,225.6,53
9,3,4,33.4,226,0,-21,243,21,15,21,75,71,5,28.4,33.4,17,0,54,0,0,33.4,33.4,10,201,54
9,4,1,14.2,205.2,0,-24,236.2,32,20,29,100,48,0,19.2,19.2,17,5,50,0,0,14.2,14.2,10,180.2,51
9,5,1,24.2,219.6,0,-96,290.6,0,0,29,0,48,20,19.2,39.2,19,0,54,-5,-15,24.2,39.2,10,194.6,54
9,6,2,35.2,262.4,0,-21,258.4,0,10,29,50,63,10,25.2,35.2,19,0,56,0,0,35.2,35.2,5,237.4,56
9,7,5,22.6,260.6,0,-30,271.6,6,20,29,100,64,0,25.6,25.6,15,3,50,0,0,22.6,22.6,10,235.6,51
9,8,5,26.6,229.4,0,-9,233.4,20,15,29,75,64,5,25.6,30.6,18,1,49,-1,-3,26.6,29.6,10,204.4,50
9,9,2,32.2,241.4,0,-12,243.4,15,13,22,65,63,7,25.2,32.2,17,0,53,0,0,32.2,32.2,10,216.4,54
9,10,6,27,230.6,0,-15,234.6,14,20,29,100,70,0,28,28,18,1,54,0,0,27,27,10,205.6,55
9,11,5,26.6,231.4,0,0,247.4,41,19,25,95,64,1,25.6,26.6,20,0,51,0,0,26.6,26.6,10,206.4,53
9,12,5,26.6,242,0,-48,265,0,10,29,50,64,10,25.6,35.6,19,0,53,-3,-9,26.6,35.6,6,217,54
9,13,4,32.4,268.2,0,-27,271.2,1,16,29,80,71,4,28.4,32.4,18,0,56,0,0,32.4,32.4,10,243.2,56
9,14,4,28.4,262.2,0,0,239.2,2,20,29,100,71,0,28.4,28.4,19,0,54,0,0,28.4,28.4,10,237.2,55
9,15,3,14,239.4,0,-42,256.4,0,20,29,100,35,0,14,14,15,0,54,0,0,14,14,10,214.4,54
9,16,1,23.2,253,0,-21,251,2,16,29,80,48,4,19.2,23.2,17,0,54,0,0,23.2,23.2,10,228,55
9,17,3,29,248,0,-81,304,0,5,29,25,35,15,14,29,19,0,56,0,0,29,29,10,223,57
9,18,2,25.2,260.6,0,0,235.6,0,20,29,100,63,0,25.2,25.2,19,0,55,0,0,25.2,25.2,10,235.6,56
9,19,6,20,203,0,-72,272,22,10,29,50,70,10,28,38,19,0,58,-6,-18,20,38,10,178,59
9,20,2,25.2,245.6,0,-6,242.6,16,20,29,100,63,0,25.2,25.2,12,0,55,0,0,25.2,25.2,10,220.6,56
9,21,1,27.2,266.2,0,-42,283.2,0,12,25,60,48,8,19.2,27.2,14,0,54,0,0,27.2,27.2,10,241.2,55
9,22,3,25,221.4,0,-120,316.4,0,3,26,15,35,17,14,31,18,0,56,-2,-6,25,31,10,196.4,56
9,23,4,28.4,235.8,0,-30,242.8,2,20,29,100,71,0,28.4,28.4,19,0,56,0,0,28.4,28.4,10,210.8,57
9,24,6,25,221.4,0,0,226.4,30,20,29,100,70,0,28,28,20,3,53,0,0,25,25,10,196.4,54
10,1,3,22,286,0,0,280,19,20,11,100,55,0,22,22,19,0,22,0,0,22,22,9,261,24
10,2,1,22,272.6,0,-45,300.6,8,5,29,25,40,15,16,31,19,0,53,-3,-9,22,31,10,247.6,54
10,3,2,27.8,253.8,0,-27,276.8,21,17,99999,85,77,3,30.8,33.8,17,0,55,-2,-6,27.8,33.8,8,228.8,59
10,4,2,28.8,234,0,-24,267,34,20,29,100,77,0,30.8,30.8,18,2,53,0,0,28.8,28.8,9,209,54
10,5,1,15,234.6,0,-117,326.6,0,0,29,0,40,20,16,36,20,0,55,-7,-21,15,36,6,209.6,56
10,6,3,29,291.4,0,-24,290.4,0,10,26,50,55,10,22,32,19,0,47,-1,-3,29,32,9,266.4,55
10,7,4,20.6,281.2,0,-30,292.2,6,15,27,75,39,5,15.6,20.6,18,0,25,0,0,20.6,20.6,9,256.2,26
10,8,1,18,247.4,0,-9,254.4,23,15,29,75,40,5,16,21,18,3,46,0,0,18,18,7,222.4,47
10,9,5,29.8,271.2,0,-12,273.2,15,11,23,55,52,9,20.8,29.8,18,0,52,0,0,29.8,29.8,8,246.2,53
10,10,6,21,251.6,0,-15,258.6,17,20,29,100,60,0,24,24,15,3,50,0,0,21,21,0,226.6,50
10,11,5,22.8,254.2,0,0,270.2,41,18,29,90,52,2,20.8,22.8,16,0,54,0,0,22.8,22.8,9,229.2,55
10,12,5,27.8,269.8,0,-48,292.8,0,13,29,65,52,7,20.8,27.8,18,0,49,0,0,27.8,27.8,7,244.8,51
10,13,2,30.8,299,0,-27,302,1,20,29,100,77,0,30.8,30.8,19,0,55,0,0,30.8,30.8,10,274,57
10,14,1,9,271.2,0,0,255.2,9,20,26,100,40,0,16,16,17,7,40,0,0,9,9,8,246.2,42
10,15,2,30.8,270.2,0,-42,287.2,0,20,29,100,77,0,30.8,30.8,20,0,52,0,0,30.8,30.8,8,245.2,53
10,16,4,26.6,279.6,0,-30,286.6,2,0,29,0,39,20,15.6,35.6,14,0,55,-3,-9,26.6,35.6,7,254.6,57
10,17,6,20,268,0,-105,348,0,0,29,0,60,20,24,44,19,0,57,-8,-24,20,44,10,243,58
10,18,3,27,287.6,0,0,262.6,0,15,29,75,55,5,22,27,17,0,55,0,0,27,27,9,262.6,56
10,19,3,31,234,0,-72,304,23,10,29,50,55,10,22,32,20,1,51,0,0,31,31,10,209,52
10,20,6,24,269.6,0,-6,266.6,16,20,29,100,60,0,24,24,19,0,45,0,0,24,24,0,244.6,46
10,21,5,30.8,297,0,-42,314,0,10,29,50,52,10,20.8,30.8,16,0,49,0,0,30.8,30.8,10,272,50
10,22,4,31.6,253,0,-120,348,0,4,29,20,39,16,15.6,31.6,17,0,49,0,0,31.6,31.6,7,228,52
10,23,4,12.6,248.4,0,-30,258.4,5,20,29,100,39,0,15.6,15.6,19,3,54,0,0,12.6,12.6,10,223.4,56
10,24,6,19,240.4,0,0,250.4,35,20,29,100,60,0,24,24,19,5,50,0,0,19,19,6,215.4,53
11,1,6,29.4,315.4,0,0,310.4,20,20,28,100,76,0,30.4,30.4,18,1,43,0,0,29.4,29.4,10,290.4,44
11,2,4,28.4,301,0,-45,329,8,10,23,50,46,10,18.4,28.4,20,0,56,0,0,28.4,28.4,10,276,56
11,3,6,29.4,283.2,0,-27,307.2,22,20,25,100,76,0,30.4,30.4,19,1,54,0,0,29.4,29.4,8,258.2,55
11,4,5,24.2,258.2,0,-24,294.2,37,20,28,100,68,0,27.2,27.2,17,3,52,0,0,24.2,24.2,10,233.2,53
11,5,3,28.4,263,0,-120,358,0,5,22,25,41,15,16.4,31.4,18,0,56,-1,-3,28.4,31.4,8,238,57
11,6,5,22.2,313.6,0,-39,327.6,0,10,28,50,68,10,27.2,37.2,19,0,55,-5,-15,22.2,37.2,10,288.6,56
11,7,3,24.4,305.6,0,-30,318.6,8,10,27,50,41,10,16.4,26.4,11,2,46,0,0,24.4,24.4,10,280.6,47
11,8,6,28.4,275.8,0,-15,288.8,23,16,27,80,76,4,30.4,34.4,12,0,52,-2,-6,28.4,34.4,10,250.8,55
11,9,4,25.4,296.6,0,-12,298.6,15,13,19,65,46,7,18.4,25.4,18,0,53,0,0,25.4,25.4,10,271.6,55
11,10,1,22,273.6,0,-15,282.6,19,20,24,100,60,0,24,24,15,2,50,0,0,22,22,10,248.6,53
11,11,5,27.2,281.4,0,0,299.4,43,18,24,90,68,2,27.2,29.2,20,2,49,0,0,27.2,27.2,8,256.4,49
11,12,4,25.4,295.2,0,-48,318.2,0,13,7,65,46,7,18.4,25.4,16,0,54,0,0,25.4,25.4,5,270.2,55
11,13,2,21.2,320.2,0,-27,325.2,3,18,27,90,53,2,21.2,23.2,18,2,48,0,0,21.2,21.2,10,295.2,49
11,14,5,27.2,298.4,0,0,282.4,9,20,26,100,68,0,27.2,27.2,19,0,50,0,0,27.2,27.2,10,273.4,51
11,15,1,24,294.2,0,-42,311.2,0,20,26,100,60,0,24,24,18,0,55,0,0,24,24,10,269.2,56
11,16,6,30.4,310,0,-30,317,2,20,25,100,76,0,30.4,30.4,19,0,56,0,0,30.4,30.4,6,285,56
11,17,2,20.2,288.2,0,-126,389.2,0,0,29,0,53,20,21.2,41.2,19,0,57,-7,-21,20.2,41.2,9,263.2,58
11,18,2,26.2,313.8,0,0,288.8,0,15,27,75,53,5,21.2,26.2,19,0,52,0,0,26.2,26.2,10,288.8,55
11,19,4,28.4,262.4,0,-72,332.4,23,10,29,50,46,10,18.4,28.4,20,0,55,0,0,28.4,28.4,10,237.4,56
11,20,1,24,293.6,0,-6,290.6,16,20,28,100,60,0,24,24,19,0,57,0,0,24,24,8,268.6,58
11,21,3,16.4,313.4,0,-42,330.4,0,20,26,100,41,0,16.4,16.4,15,0,58,0,0,16.4,16.4,10,288.4,58
11,22,3,27.4,280.4,0,-123,378.4,0,6,27,30,41,14,16.4,30.4,17,0,55,-1,-3,27.4,30.4,10,255.4,56
11,23,1,38,286.4,0,-36,302.4,5,0,29,0,60,20,24,44,18,0,56,-2,-6,38,44,10,261.4,58
11,24,2,16.2,256.6,0,0,271.6,40,20,27,100,53,0,21.2,21.2,16,5,53,0,0,16.2,16.2,0,231.6,55
12,1,3,23,338.4,0,0,336.4,23,20,29,100,65,0,26,26,20,3,25,0,0,23,23,10,313.4,26
12,2,5,32,333,0,-45,361,8,10,29,50,55,10,22,32,20,0,55,0,0,32,32,10,308,56
12,3,6,24.4,307.6,0,-27,334.6,25,19,29,95,66,1,26.4,27.4,17,3,45,0,0,24.4,24.4,10,282.6,46
12,4,1,16,274.2,0,-24,316.2,43,20,29,100,55,0,22,22,20,6,51,0,0,16,16,10,249.2,53
12,5,4,33.2,296.2,0,-120,391.2,0,10,25,50,58,10,23.2,33.2,16,0,55,0,0,33.2,33.2,10,271.2,57
12,6,5,32,345.6,0,-39,359.6,0,10,29,50,55,10,22,32,20,0,56,0,0,32,32,10,320.6,57
12,7,4,28.2,333.8,0,-30,346.8,8,15,26,75,58,5,23.2,28.2,15,0,41,0,0,28.2,28.2,8,308.8,41
12,8,6,25.4,301.2,0,-15,315.2,24,20,29,100,66,0,26.4,26.4,20,1,36,0,0,25.4,25.4,10,276.2,37
12,9,4,30.2,326.8,0,-12,328.8,15,13,29,65,58,7,23.2,30.2,20,0,55,0,0,30.2,30.2,10,301.8,56
12,10,5,22,295.6,0,-15,304.6,19,20,27,100,55,0,22,22,19,0,35,0,0,22,22,10,270.6,46
12,11,2,21.4,302.8,0,0,322.8,45,19,22,95,56,1,22.4,23.4,14,2,39,0,0,21.4,21.4,10,277.8,41
12,12,6,24.4,319.6,0,-60,354.6,0,10,24,50,66,10,26.4,36.4,18,0,55,-4,-12,24.4,36.4,6,294.6,56
12,13,2,22.4,342.6,0,-27,350.6,6,17,29,85,56,3,22.4,25.4,20,3,48,0,0,22.4,22.4,10,317.6,48
12,14,1,18,316.4,0,0,304.4,13,20,29,100,55,0,22,22,20,4,44,0,0,18,18,10,291.4,46
12,15,4,23.2,317.4,0,-42,334.4,0,20,29,100,58,0,23.2,23.2,20,0,56,0,0,23.2,23.2,10,292.4,57
12,16,6,29.4,339.4,0,-30,346.4,2,17,21,85,66,3,26.4,29.4,20,0,57,0,0,29.4,29.4,10,314.4,57
12,17,1,10,298.2,0,-153,426.2,0,5,30,25,55,15,22,37,20,0,57,-9,-27,10,37,10,273.2,58
12,18,3,29,342.8,0,0,317.8,0,17,29,85,65,3,26,29,20,0,55,0,0,29,29,10,317.8,56
12,19,1,21,283.4,0,-81,364.4,25,10,26,50,55,10,22,32,20,2,56,-3,-9,21,30,10,258.4,57
12,20,3,26,319.6,0,-6,316.6,16,20,29,100,65,0,26,26,17,0,55,0,0,26,26,7,294.6,55
12,21,5,27,340.4,0,-42,357.4,0,15,29,75,55,5,22,27,15,0,55,0,0,27,27,9,315.4,56
12,22,3,29,309.4,0,-132,416.4,0,8,30,40,65,12,26,38,16,0,56,-3,-9,29,38,10,284.4,57
12,23,2,15.4,301.8,0,-63,344.8,5,0,24,0,56,20,22.4,42.4,20,0,55,-9,-27,15.4,42.4,8,276.8,55
12,24,2,18.4,275,0,0,294,44,20,27,100,56,0,22.4,22.4,20,4,50,0,0,18.4,18.4,10,250,53
13,1,5,28.6,367,0,0,367,25,19,15,95,74,1,29.6,30.6,19,2,37,0,0,28.6,28.6,10,342,39
13,2,4,25,358,0,-45,387,9,10,30,50,40,10,16,26,18,1,47,0,0,25,25,10,333,50
13,3,6,28.8,336.4,0,-27,364.4,26,19,24,95,72,1,28.8,29.8,19,1,50,0,0,28.8,28.8,10,311.4,51
13,4,5,27.6,301.8,0,-24,345.8,45,20,29,100,74,0,29.6,29.6,20,2,46,0,0,27.6,27.6,10,276.8,46
13,5,3,26.4,322.6,0,-126,423.6,0,10,24,50,56,10,22.4,32.4,0,0,57,-2,-6,26.4,32.4,10,297.6,58
13,6,4,26,371.6,0,-39,385.6,0,10,30,50,40,10,16,26,20,0,57,0,0,26,26,10,346.6,57
13,7,1,33.8,367.6,0,-30,380.6,8,15,27,75,72,5,28.8,33.8,18,0,52,0,0,33.8,33.8,3,342.6,53
13,8,4,18,319.2,0,-15,334.2,25,17,30,85,40,3,16,19,17,1,50,0,0,18,18,10,294.2,51
13,9,3,29.4,356.2,0,-12,358.2,15,13,28,65,56,7,22.4,29.4,19,0,53,0,0,29.4,29.4,10,331.2,53
13,10,6,28.8,324.4,0,-15,333.4,19,20,29,100,72,0,28.8,28.8,7,0,45,0,0,28.8,28.8,10,299.4,47
13,11,6,29.8,332.6,0,0,353.6,46,18,28,90,72,2,28.8,30.8,18,1,43,0,0,29.8,29.8,6,307.6,44
13,12,3,29.4,349,0,-60,384,0,13,25,65,56,7,22.4,29.4,14,0,55,0,0,29.4,29.4,7,324,56
13,13,5,22.6,365.2,0,-39,385.2,6,15,29,75,74,5,29.6,34.6,19,0,55,-4,-12,22.6,34.6,10,340.2,56
13,14,5,29.6,346,0,0,334,13,20,29,100,74,0,29.6,29.6,18,0,51,0,0,29.6,29.6,10,321,56
13,15,1,28.8,346.2,0,-42,363.2,0,20,29,100,72,0,28.8,28.8,18,0,53,0,0,28.8,28.8,5,321.2,54
13,16,1,31.8,371.2,0,-30,378.2,2,17,29,85,72,3,28.8,31.8,19,0,56,0,0,31.8,31.8,9,346.2,57
13,17,4,27,325.2,0,-159,459.2,0,3,29,15,40,17,16,33,19,0,57,-2,-6,27,33,10,300.2,58
13,18,1,28.8,371.6,0,0,346.6,0,20,29,100,72,0,28.8,28.8,20,0,58,0,0,28.8,28.8,10,346.6,59
13,19,2,24,307.4,0,-81,390.4,27,10,29,50,40,10,16,26,20,2,55,0,0,24,24,10,282.4,56
13,20,2,16,335.6,0,-6,332.6,16,20,29,100,40,0,16,16,13,0,56,0,0,16,16,5,310.6,57
13,21,6,27.8,368.2,0,-48,391.2,0,15,26,75,72,5,28.8,33.8,15,0,57,-2,-6,27.8,33.8,10,343.2,58
13,22,2,26,335.4,0,-132,442.4,0,10,30,50,40,10,16,26,18,0,54,0,0,26,26,10,310.4,56
13,23,2,30,331.8,0,-69,380.8,5,0,29,0,40,20,16,36,19,0,56,-2,-6,30,36,10,306.8,56
13,24,3,20.4,295.4,0,0,316.4,46,20,29,100,56,0,22.4,22.4,18,2,43,0,0,20.4,20.4,7,270.4,45
14,1,6,13.8,380.8,0,0,386.8,31,19,23,95,47,1,18.8,19.8,17,6,21,0,0,13.8,13.8,10,355.8,22
14,2,1,25.8,383.8,0,-48,415.8,9,8,30,40,42,12,16.8,28.8,19,0,55,-1,-3,25.8,28.8,10,358.8,57
14,3,4,17.8,354.2,0,-27,387.2,31,20,29,100,57,0,22.8,22.8,19,5,47,0,0,17.8,17.8,7,329.2,48
14,4,3,23.8,325.6,0,-24,372.6,48,20,29,100,67,0,26.8,26.8,19,3,53,0,0,23.8,23.8,10,300.6,54
14,5,2,34,356.6,0,-132,463.6,0,0,29,0,50,20,20,40,19,0,56,-2,-6,34,40,10,331.6,58
14,6,3,18.8,390.4,0,-57,422.4,0,10,30,50,67,10,26.8,36.8,20,0,58,-6,-18,18.8,36.8,99999,365.4,58
14,7,6,20.8,388.4,0,-33,404.4,8,15,27,75,47,5,18.8,23.8,19,0,43,-1,-3,20.8,23.8,10,363.4,45
14,8,5,31.4,350.6,0,-15,365.6,25,17,29,85,71,3,28.4,31.4,15,0,52,0,0,31.4,31.4,8,325.6,56
14,9,6,19.8,376,0,-15,384,18,13,29,65,47,7,18.8,25.8,18,3,49,-1,-3,19.8,22.8,10,351,50
14,10,3,24.8,349.2,0,-15,360.2,21,20,29,100,67,0,26.8,26.8,19,2,50,0,0,24.8,24.8,6,324.2,51
14,11,5,27.4,360,0,0,383,48,19,23,95,71,1,28.4,29.4,20,2,45,0,0,27.4,27.4,10,335,47
14,12,1,24.8,373.8,0,-60,408.8,0,12,26,60,42,8,16.8,24.8,17,0,53,0,0,24.8,24.8,7,348.8,54
14,13,1,19.8,385,0,-39,407,8,15,30,75,42,5,16.8,21.8,17,2,54,0,0,19.8,19.8,10,360,54
14,14,3,28.8,374.8,0,0,363.8,14,17,29,85,67,3,26.8,29.8,16,1,54,0,0,28.8,28.8,10,349.8,57
14,15,2,20,366.2,0,-42,383.2,0,20,29,100,50,0,20,20,20,0,53,0,0,20,20,10,341.2,54
14,16,4,25.8,397,0,-30,404,2,17,22,85,57,3,22.8,25.8,20,0,50,0,0,25.8,25.8,10,372,50
14,17,6,17.8,343,0,-180,498,0,0,29,0,47,20,18.8,38.8,19,0,57,-7,-21,17.8,38.8,10,318,57
14,18,2,20,391.6,0,0,366.6,0,20,29,100,50,0,20,20,19,0,57,0,0,20,20,10,366.6,58
14,19,2,28,335.4,0,-81,420.4,29,10,29,50,50,10,20,30,19,2,56,0,0,28,28,10,310.4,57
14,20,5,28.4,364,0,-6,361,16,20,26,100,71,0,28.4,28.4,11,0,57,0,0,28.4,28.4,10,339,58
14,21,5,27.4,395.6,0,-54,424.6,0,15,29,75,71,5,28.4,33.4,15,0,58,-2,-6,27.4,33.4,10,370.6,59
14,22,1,26.8,362.2,0,-135,472.2,0,7,30,35,42,13,16.8,29.8,19,0,57,-1,-3,26.8,29.8,10,337.2,58
14,23,4,12.8,344.6,0,-99,423.6,5,0,29,0,57,20,22.8,42.8,19,0,58,-10,-30,12.8,42.8,10,319.6,58
14,24,4,17.8,313.2,0,0,339.2,51,20,27,100,57,0,22.8,22.8,20,5,51,0,0,17.8,17.8,10,288.2,52
15,1,6,18.8,399.6,0,-3,412.6,35,15,15,75,52,5,20.8,25.8,19,4,9,-1,-3,18.8,21.8,99999,374.6,10
15,2,6,11.8,395.6,0,-69,448.6,9,8,30,40,52,12,20.8,32.8,19,0,55,-7,-21,11.8,32.8,10,370.6,56
15,3,6,15.8,370,0,-27,409,37,19,28,95,52,1,20.8,21.8,20,6,44,0,0,15.8,15.8,10,345,46
15,4,5,0.6,326.2,0,-24,388.2,63,20,30,100,39,0,15.6,15.6,19,15,52,0,0,0.6,0.6,9,301.2,53
15,5,4,33.4,390,0,-141,506,0,0,22,0,56,20,22.4,42.4,19,0,54,-3,-9,33.4,42.4,10,365,55
15,6,5,10.6,401,0,-72,448,0,10,30,50,39,10,15.6,25.6,20,0,57,-5,-15,10.6,25.6,10,376,58
15,7,1,27.4,415.8,0,-33,431.8,8,15,27,75,56,5,22.4,27.4,19,0,49,0,0,27.4,27.4,10,390.8,50
15,8,2,22.6,373.2,0,-15,390.2,27,17,30,85,54,3,21.6,24.6,19,2,47,0,0,22.6,22.6,10,348.2,49
15,9,3,16.8,392.8,0,-24,411.8,20,13,29,65,52,7,20.8,27.8,19,2,49,-3,-9,16.8,25.8,10,367.8,51
15,10,4,19.4,368.6,0,-15,382.6,24,20,30,100,56,0,22.4,22.4,14,3,38,0,0,19.4,19.4,5,343.6,40
15,11,3,16.8,376.8,0,0,404.8,53,19,25,95,52,1,20.8,21.8,19,5,43,0,0,16.8,16.8,10,351.8,44
15,12,5,11.6,385.4,0,-75,435.4,0,9,27,45,39,11,15.6,26.6,19,0,52,-5,-15,11.6,26.6,8,360.4,53
15,13,3,13.8,398.8,0,-66,447.8,8,0,30,0,52,20,20.8,40.8,19,0,54,-9,-27,13.8,40.8,9,373.8,55
15,14,1,23.4,398.2,0,0,389.2,16,17,30,85,56,3,22.4,25.4,16,2,49,0,0,23.4,23.4,10,373.2,52
15,15,4,22.4,388.6,0,-42,405.6,0,20,30,100,56,0,22.4,22.4,20,0,56,0,0,22.4,22.4,10,363.6,56
15,16,4,26.4,423.4,0,-30,430.4,2,16,25,80,56,4,22.4,26.4,19,0,55,0,0,26.4,26.4,10,398.4,56
15,17,2,35.6,378.6,0,-186,539.6,0,0,30,0,54,20,21.6,41.6,19,0,57,-2,-6,35.6,41.6,10,353.6,58
15,18,1,27.4,419,0,0,394,0,15,30,75,56,5,22.4,27.4,19,0,56,0,0,27.4,27.4,10,394,56
15,19,6,20.8,356.2,0,-90,451.2,30,10,28,50,52,10,20.8,30.8,20,1,53,-3,-9,20.8,29.8,10,331.2,54
15,20,2,21.6,385.6,0,-6,382.6,16,20,30,100,54,0,21.6,21.6,16,0,53,0,0,21.6,21.6,6,360.6,54
15,21,2,24.6,420.2,0,-54,449.2,0,17,30,85,54,3,21.6,24.6,14,0,47,0,0,24.6,24.6,10,395.2,48
15,22,1,27.4,389.6,0,-141,505.6,0,9,30,45,56,11,22.4,33.4,17,0,56,-2,-6,27.4,33.4,10,364.6,56
15,23,5,20.6,365.2,0,-114,459.2,5,0,30,0,39,20,15.6,35.6,19,0,49,-5,-15,20.6,35.6,10,340.2,51
15,24,3,15.8,329,0,0,360,56,20,29,100,52,0,20.8,20.8,17,5,32,0,0,15.8,15.8,10,304,33
16,1,1,31,430.6,0,-3,443.6,35,15,29,75,65,5,26,31,20,0,39,0,0,31,31,10,405.6,41
16,2,5,24.4,420,0,-81,485,9,10,29,50,66,10,26.4,36.4,18,0,54,-4,-12,24.4,36.4,10,395,55
16,3,4,30.4,400.4,0,-27,440.4,38,19,30,95,76,1,30.4,31.4,20,1,48,0,0,30.4,30.4,10,375.4,49
16,4,1,24,350.2,0,-24,414.2,65,20,29,100,65,0,26,26,20,2,55,0,0,24,24,10,325.2,56
16,5,3,30,420,0,-141,536,0,0,29,0,25,20,10,30,18,0,55,0,0,30,30,10,395,57
16,6,2,13.4,414.4,0,-81,470.4,0,10,29,50,31,10,12.4,22.4,20,0,57,-3,-9,13.4,22.4,10,389.4,58
16,7,6,30.4,446.2,0,-33,462.2,8,10,29,50,51,10,20.4,30.4,18,0,49,0,0,30.4,30.4,10,421.2,50
16,8,5,28.4,401.6,0,-15,419.6,28,17,28,85,66,3,26.4,29.4,16,1,49,0,0,28.4,28.4,10,376.6,50
16,9,6,27.4,420.2,0,-24,439.2,20,13,26,65,51,7,20.4,27.4,18,0,55,0,0,27.4,27.4,10,395.2,57
16,10,5,25.4,394,0,-15,409,25,20,26,100,66,0,26.4,26.4,16,1,52,0,0,25.4,25.4,10,369,53
16,11,5,25.4,402.2,0,0,432.2,55,19,29,95,66,1,26.4,27.4,20,2,50,0,0,25.4,25.4,10,377.2,51
16,12,3,20,405.4,0,-75,455.4,0,10,22,50,25,10,10,20,15,0,55,0,0,20,20,10,380.4,56
16,13,6,27.4,426.2,0,-66,475.2,8,13,29,65,51,7,20.4,27.4,17,0,55,0,0,27.4,27.4,10,401.2,57
16,14,2,6.4,404.6,0,0,406.6,27,15,29,75,31,5,12.4,17.4,15,11,40,0,0,6.4,6.4,10,379.6,44
16,15,4,30.4,419,0,-42,436,0,20,29,100,76,0,30.4,30.4,20,0,55,0,0,30.4,30.4,10,394,55
16,16,4,30.4,453.8,0,-33,463.8,2,17,22,85,76,3,30.4,33.4,20,0,57,-1,-3,30.4,33.4,10,428.8,58
16,17,3,30,408.6,0,-186,569.6,0,0,29,0,25,20,10,30,17,0,56,0,0,30,30,10,383.6,58
16,18,3,15,434,0,0,409,0,15,29,75,25,5,10,15,19,0,55,0,0,15,15,10,409,57
16,19,1,24,380.2,0,-102,487.2,30,10,29,50,65,10,26,36,20,0,58,-4,-12,24,36,10,355.2,58
16,20,4,30.4,416,0,-6,413,16,20,26,100,76,0,30.4,30.4,20,0,57,0,0,30.4,30.4,10,391,58
16,21,6,25.4,445.6,0,-54,474.6,0,15,24,75,51,5,20.4,25.4,15,0,52,0,0,25.4,25.4,10,420.6,52
16,22,2,17.4,407,0,-150,532,0,6,25,30,31,14,12.4,26.4,19,0,52,-3,-9,17.4,26.4,10,382,54
16,23,2,17.4,382.6,0,-129,491.6,5,0,29,0,31,20,12.4,32.4,18,0,52,-5,-15,17.4,32.4,10,357.6,54
16,24,1,24,353,0,0,386,58,20,29,100,65,0,26,26,20,2,45,0,0,24,24,10,328,52
17,1,5,6,436.6,0,-3,459.6,45,20,25,100,40,0,16,16,19,10,2,0,0,6,6,99999,411.6,3
17,2,1,28.4,448.4,0,-81,513.4,9,14,29,70,56,6,22.4,28.4,19,0,56,0,0,28.4,28.4,10,423.4,57
17,3,6,19.2,419.6,0,-27,462.6,41,19,27,95,53,1,21.2,22.2,19,3,34,0,0,19.2,19.2,10,394.6,35
17,4,4,16,366.2,0,-24,436.2,71,20,29,100,55,0,22,22,20,6,52,0,0,16,16,10,341.2,54
17,5,6,29.2,449.2,0,-153,577.2,0,0,29,0,53,20,21.2,41.2,20,0,55,-4,-12,29.2,41.2,10,424.2,57
17,6,1,32.4,446.8,0,-81,502.8,0,10,30,50,56,10,22.4,32.4,19,0,58,0,0,32.4,32.4,10,421.8,58
17,7,1,30.4,476.6,0,-33,492.6,8,12,22,60,56,8,22.4,30.4,18,0,48,0,0,30.4,30.4,10,451.6,50
17,8,3,25.4,427,0,-18,449,29,17,25,85,66,3,26.4,29.4,18,1,55,-1,-3,25.4,28.4,10,402,55
17,9,3,21.4,441.6,0,-39,475.6,20,10,26,50,66,10,26.4,36.4,18,0,54,-5,-15,21.4,36.4,10,416.6,55
17,10,3,23.4,417.4,0,-15,435.4,28,20,27,100,66,0,26.4,26.4,11,3,37,0,0,23.4,23.4,7,392.4,37
17,11,3,25.4,427.6,0,0,459.6,57,19,28,95,66,1,26.4,27.4,20,2,46,0,0,25.4,25.4,10,402.6,51
17,12,2,31,436.4,0,-75,486.4,0,7,28,35,45,13,18,31,14,0,54,0,0,31,31,10,411.4,55
17,13,6,22.2,448.4,0,-69,502.4,10,14,28,70,53,6,21.2,27.2,20,2,54,-1,-3,22.2,25.2,10,423.4,55
17,14,4,21,425.6,0,0,433.6,33,15,28,75,55,5,22,27,16,6,50,0,0,21,21,10,400.6,51
17,15,6,21.2,440.2,0,-42,457.2,0,20,28,100,53,0,21.2,21.2,18,0,55,0,0,21.2,21.2,10,415.2,55
17,16,2,20,473.8,0,-33,483.8,2,18,29,90,45,2,18,20,20,0,58,0,0,20,20,10,448.8,58
17,17,5,21,429.6,0,-201,605.6,0,0,30,0,40,20,16,36,19,0,57,-5,-15,21,36,10,404.6,58
17,18,2,23,457,0,0,432,0,15,29,75,45,5,18,23,20,0,56,0,0,23,23,10,432,57
17,19,4,13,393.2,0,-120,519.2,31,10,29,50,55,10,22,32,20,1,54,-6,-18,13,31,10,368.2,55
17,20,1,22.4,438.4,0,-6,435.4,16,20,23,100,56,0,22.4,22.4,18,0,54,0,0,22.4,22.4,10,413.4,55
17,21,4,11,456.6,0,-75,506.6,0,10,29,50,55,10,22,32,16,0,58,-7,-21,11,32,10,431.6,58
17,22,2,33,440,0,-150,565,0,5,26,25,45,15,18,33,17,0,52,0,0,33,33,10,415,54
17,23,5,21,403.6,0,-144,527.6,5,0,26,0,40,20,16,36,19,0,54,-5,-15,21,36,10,378.6,55
17,24,5,16,369,0,0,402,58,20,26,100,40,0,16,16,15,0,36,0,0,16,16,10,344,37
18,1,3,11.8,448.4,0,-3,478.4,52,20,29,100,47,0,18.8,18.8,20,7,48,0,0,11.8,11.8,10,423.4,48
18,2,2,26,474.4,0,-87,545.4,9,12,29,60,60,8,24,32,20,0,53,-2,-6,26,32,9,449.4,55
18,3,2,22,441.6,0,-27,487.6,44,19,29,95,60,1,24,25,20,3,44,0,0,22,22,7,416.6,45
18,4,6,17.2,383.4,0,-24,453.4,71,20,29,100,43,0,17.2,17.2,19,0,59,0,0,17.2,17.2,10,358.4,59
18,5,3,11.8,461,0,-180,616,0,0,29,0,47,20,18.8,38.8,20,0,2,-9,-27,11.8,38.8,7,436,3
18,6,2,22,468.8,0,-93,536.8,0,10,29,50,60,10,24,34,16,0,56,-4,-12,22,34,10,443.8,58
18,7,5,31,507.6,0,-33,523.6,8,15,20,75,65,5,26,31,19,0,50,0,0,31,31,7,482.6,51
18,8,3,19.8,446.8,0,-18,470.8,31,17,29,85,47,3,18.8,21.8,14,2,41,0,0,19.8,19.8,10,421.8,42
18,9,5,36,477.6,0,-39,511.6,20,10,29,50,65,10,26,36,18,0,54,0,0,36,36,7,452.6,57
18,10,1,16.4,433.8,0,-15,455.8,32,20,29,100,51,0,20.4,20.4,18,4,36,0,0,16.4,16.4,10,408.8,37
18,11,2,22,449.6,0,0,484.6,60,19,29,95,60,1,24,25,20,3,39,0,0,22,22,10,424.6,40
18,12,6,31.2,467.6,0,-75,517.6,0,6,29,30,43,14,17.2,31.2,15,0,53,0,0,31.2,31.2,6,442.6,54
18,13,4,16.2,464.6,0,-69,520.6,12,13,26,65,28,7,11.2,18.2,18,2,50,0,0,16.2,16.2,10,439.6,50
18,14,1,20.4,446,0,0,459,38,15,29,75,51,5,20.4,25.4,18,5,48,0,0,20.4,20.4,10,421,50
18,15,5,26,466.2,0,-42,483.2,0,20,25,100,65,0,26,26,19,0,52,0,0,26,26,10,441.2,53
18,16,1,24.4,498.2,0,-33,508.2,2,16,25,80,51,4,20.4,24.4,18,0,55,0,0,24.4,24.4,10,473.2,57
18,17,4,25.2,454.8,0,-204,633.8,0,3,30,15,28,17,11.2,28.2,18,0,58,-1,-3,25.2,28.2,10,429.8,59
18,18,6,27.2,484.2,0,0,459.2,0,10,29,50,43,10,17.2,27.2,19,0,56,0,0,27.2,27.2,7,459.2,57
18,19,3,20.8,414,0,-126,548,33,10,29,50,47,10,18.8,28.8,20,2,54,-2,-6,20.8,26.8,10,389,55
18,20,5,26,464.4,0,-6,461.4,16,20,23,100,65,0,26,26,20,0,57,0,0,26,26,5,439.4,58
18,21,4,19.2,475.8,0,-75,525.8,0,12,29,60,28,8,11.2,19.2,12,0,51,0,0,19.2,19.2,10,450.8,52
18,22,6,30.2,470.2,0,-150,595.2,0,7,23,35,43,13,17.2,30.2,18,0,53,0,0,30.2,30.2,10,445.2,54
18,23,1,13.4,417,0,-171,568,5,0,29,0,51,20,20.4,40.4,18,0,53,-9,-27,13.4,40.4,8,392,55
18,24,4,28.2,397.2,0,-3,433.2,58,0,29,0,28,20,11.2,31.2,16,0,55,-1,-3,28.2,31.2,8,372.2,55
19,1,6,28,476.4,0,-9,512.4,52,0,29,0,35,20,14,34,20,0,54,-2,-6,28,34,10,451.4,54
19,2,2,23.8,498.2,0,-87,572.2,12,12,29,60,47,8,18.8,26.8,20,3,54,0,0,23.8,23.8,10,473.2,55
19,3,4,21,462.6,0,-27,511.6,47,20,28,100,60,0,24,24,20,3,53,0,0,21,21,5,437.6,54
19,4,5,23.2,406.6,0,-24,478.6,73,20,29,100,63,0,25.2,25.2,20,2,57,0,0,23.2,23.2,10,381.6,57
19,5,3,19,480,0,-189,644,0,0,29,0,20,20,8,28,20,0,57,-3,-9,19,28,10,455,57
19,6,4,29,497.8,0,-93,565.8,0,15,29,75,60,5,24,29,20,0,57,0,0,29,29,10,472.8,57
19,7,5,27.2,534.8,0,-36,553.8,8,15,29,75,63,5,25.2,30.2,20,0,53,-1,-3,27.2,30.2,7,509.8,54
19,8,1,22,468.8,0,-18,493.8,32,17,25,85,50,3,20,23,14,1,53,0,0,22,22,10,443.8,53
19,9,1,23,500.6,0,-42,538.6,21,13,29,65,50,7,20,27,20,1,46,-1,-3,23,26,10,475.6,47
19,10,3,0,433.8,0,-15,463.8,40,20,29,100,20,0,8,8,0,8,44,0,0,0,0,10,408.8,53
19,11,5,24.2,473.8,0,0,511.8,63,18,29,90,63,2,25.2,27.2,20,3,47,0,0,24.2,24.2,10,448.8,48
19,12,6,26,493.6,0,-75,543.6,0,8,25,40,35,12,14,26,15,0,51,0,0,26,26,10,468.6,52
19,13,4,30,494.6,0,-78,559.6,12,5,29,25,60,15,24,39,20,0,57,-3,-9,30,39,10,469.6,57
19,14,1,20,466,0,0,484,43,15,29,75,50,5,20,25,20,5,47,0,0,20,20,5,441,48
19,15,4,24,490.2,0,-42,507.2,0,20,25,100,60,0,24,24,20,0,53,0,0,24,24,10,465.2,53
19,16,6,17,515.2,0,-33,525.2,2,17,20,85,35,3,14,17,20,0,55,0,0,17,17,10,490.2,57
19,17,3,22,476.8,0,-210,661.8,0,0,30,0,20,20,8,28,20,0,57,-2,-6,22,28,10,451.8,58
19,18,2,23.8,508,0,0,483,0,15,29,75,47,5,18.8,23.8,20,0,57,0,0,23.8,23.8,9,483,57
19,19,6,22,436,0,-126,572,35,10,29,50,35,10,14,24,20,2,54,0,0,22,22,10,411,57
19,20,2,18.8,483.2,0,-6,480.2,16,20,26,100,47,0,18.8,18.8,17,0,53,0,0,18.8,18.8,0,458.2,54
19,21,1,17,492.8,0,-93,560.8,0,5,29,25,50,15,20,35,14,0,57,-6,-18,17,35,10,467.8,58
19,22,5,23.2,493.4,0,-162,630.4,0,10,29,50,63,10,25.2,35.2,20,0,51,-4,-12,23.2,35.2,10,468.4,52
19,23,2,29.8,446.8,0,-180,606.8,5,0,29,0,47,20,18.8,38.8,20,0,51,-3,-9,29.8,38.8,0,421.8,52
19,24,3,19,416.2,0,-12,461.2,58,0,29,0,20,20,8,28,20,0,55,-3,-9,19,28,10,391.2,57
20,1,5,25.8,502.2,1,-18,547.2,52,0,27,0,37,20,14.8,34.8,20,0,56,-3,-9,25.8,34.8,10,477.2,56
20,2,6,15.2,513.4,1,-87,591.4,16,12,29,60,28,8,11.2,19.2,17,4,49,0,0,15.2,15.2,10,488.4,51
20,3,4,13,475.6,1,-27,529.6,52,20,29,100,45,0,18,18,17,5,44,0,0,13,13,10,450.6,44
20,4,5,10.8,417.4,1,-24,493.4,77,20,27,100,37,0,14.8,14.8,20,4,52,0,0,10.8,10.8,10,392.4,52
20,5,6,16.2,496.2,1,-204,675.2,0,0,30,0,28,20,11.2,31.2,20,0,57,-5,-15,16.2,31.2,10,471.2,58
20,6,3,27.4,525.2,1,-93,593.2,0,15,22,75,56,5,22.4,27.4,2,0,44,0,0,27.4,27.4,10,500.2,45
20,7,2,22.2,557,1,-36,576,8,15,27,75,43,5,17.2,22.2,20,0,54,0,0,22.2,22.2,10,532,55
20,8,5,15.8,484.6,1,-18,511.6,34,17,29,85,37,3,14.8,17.8,20,2,40,0,0,15.8,15.8,10,459.6,41
20,9,6,16.2,516.8,1,-42,558.8,25,11,21,55,28,9,11.2,20.2,19,4,41,0,0,16.2,16.2,7,491.8,42
20,10,2,27.2,461,1,-15,491,40,10,29,50,43,10,17.2,27.2,10,0,56,0,0,27.2,27.2,0,436,56
20,11,1,3.2,477,1,0,525,73,18,27,90,28,2,11.2,13.2,20,10,36,0,0,3.2,3.2,10,452,37
20,12,3,32.4,526,1,-75,576,0,10,24,50,56,10,22.4,32.4,16,0,54,0,0,32.4,32.4,5,501,56
20,13,1,19.2,513.8,1,-90,590.8,12,0,30,0,28,20,11.2,31.2,20,0,53,-4,-12,19.2,31.2,10,488.8,54
20,14,4,15,481,1,0,507,51,15,29,75,45,5,18,23,20,8,46,0,0,15,15,10,456,47
20,15,6,17.2,507.4,1,-51,533.4,0,5,26,25,28,15,11.2,26.2,17,0,51,-3,-9,17.2,26.2,10,482.4,51
20,16,3,31.4,546.6,1,-33,556.6,2,11,29,55,56,9,22.4,31.4,20,0,57,0,0,31.4,31.4,10,521.6,57
20,17,4,2,478.8,1,-246,699.8,0,0,30,0,45,20,18,38,20,0,57,-12,-36,2,38,10,453.8,58
20,18,1,15.2,523.2,1,-6,504.2,0,10,26,50,28,10,11.2,21.2,20,0,56,-2,-6,15.2,21.2,10,498.2,58
20,19,4,17,453,1,-135,600,37,10,29,50,45,10,18,28,20,2,56,-3,-9,17,26,10,428,56
20,20,3,22.4,505.6,1,-6,502.6,16,20,29,100,56,0,22.4,22.4,20,0,53,0,0,22.4,22.4,10,480.6,54
20,21,2,27.2,520,1,-93,588,0,10,29,50,43,10,17.2,27.2,12,0,58,0,0,27.2,27.2,10,495,58
20,22,2,29.2,522.6,1,-162,659.6,0,8,27,40,43,12,17.2,29.2,20,0,53,0,0,29.2,29.2,10,497.6,54
20,23,5,25.8,472.6,1,-189,641.6,5,0,29,0,37,20,14.8,34.8,20,0,54,-3,-9,25.8,34.8,10,447.6,55
20,24,1,19.2,435.4,1,-24,492.4,58,0,29,0,28,20,11.2,31.2,20,0,54,-4,-12,19.2,31.2,9,410.4,56
