Period,Subject,Group,Profit,TotalProfit,Participate,Total_Deduct,Total_First_Income,Total_Cost,contribution,percentContribution,sumContribution,n,Profit1Own,Profit1Group,Profit1,Cost,ReceivedPoints,Reduction,Profit2
1,1,4,16,41,0,0,17,1,11,55,20,4,9,8,17,1,0,0,16
1,2,2,25.2,50.2,0,0,27.2,2,10,50,43,4,10,17.2,27.2,2,0,0,25.2
1,3,5,26,51,0,-12,38,0,10,50,70,4,10,28,38,0,-4,-12,26
1,4,1,20.4,45.4,0,0,23.4,3,17,85,51,4,3,20.4,23.4,3,0,0,20.4
1,5,3,32,57,0,0,32,0,20,100,80,4,0,32,32,0,0,0,32
1,6,1,18.4,43.4,0,0,20.4,2,20,100,51,4,0,20.4,20.4,2,0,0,18.4
1,7,5,27,52,0,0,28,1,20,100,70,4,0,28,28,1,0,0,27
1,8,2,27.2,52.2,0,0,27.2,0,10,50,43,4,10,17.2,27.2,0,0,0,27.2
1,9,4,21,46,0,0,21,0,7,35,20,4,13,8,21,0,0,0,21
1,10,1,28.4,53.4,0,-3,31.4,0,9,45,51,4,11,20.4,31.4,0,-1,-3,28.4
1,11,2,19.2,44.2,0,0,19.2,0,18,90,43,4,2,17.2,19.2,0,0,0,19.2
1,12,3,32,57,0,0,32,0,20,100,80,4,0,32,32,0,0,0,32
1,13,2,26.2,51.2,0,-6,32.2,0,5,25,43,4,15,17.2,32.2,0,-2,-6,26.2
1,14,3,32,57,0,0,32,0,20,100,80,4,0,32,32,0,0,0,32
1,15,3,32,57,0,0,32,0,20,100,80,4,0,32,32,0,0,0,32
1,16,1,23.4,48.4,0,-12,35.4,0,5,25,51,4,15,20.4,35.4,0,-4,-12,23.4
1,17,5,26,51,0,0,28,2,20,100,70,4,0,28,28,2,0,0,26
1,18,4,25,50,0,-3,28,0,0,0,20,4,20,8,28,0,-1,-3,25
1,19,4,26,51,0,0,26,0,2,10,20,4,18,8,26,0,0,0,26
1,20,5,27,52,0,0,28,1,20,100,70,4,0,28,28,1,0,0,27
2,1,5,27,68,0,-3,47,1,4,20,35,4,16,14,30,0,-1,-3,27
2,2,2,27.8,78,0,0,56,3,10,50,47,4,10,18.8,28.8,1,0,0,27.8
2,3,2,16.8,67.8,0,-12,56.8,2,20,100,47,4,0,18.8,18.8,2,0,0,16.8
2,4,4,13.8,59.2,0,-12,51.2,5,17,85,62,4,3,24.8,27.8,2,-4,-12,13.8
2,5,3,19.8,76.8,0,0,54.8,3,20,100,57,4,0,22.8,22.8,3,0,0,19.8
2,6,1,29,72.4,0,0,50.4,3,20,100,75,4,0,30,30,1,0,0,29
2,7,1,28,80,0,0,58,3,20,100,75,4,0,30,30,2,0,0,28
2,8,2,28.8,81,0,0,56,0,10,50,47,4,10,18.8,28.8,0,0,0,28.8
2,9,3,22.8,68.8,0,-15,58.8,0,5,25,57,4,15,22.8,37.8,0,-5,-15,22.8
2,10,3,27.8,81.2,0,-6,62.2,0,12,60,57,4,8,22.8,30.8,0,-1,-3,27.8
2,11,5,24,68.2,0,0,43.2,0,10,50,35,4,10,14,24,0,0,0,24
2,12,4,20.8,77.8,0,0,56.8,4,20,100,62,4,0,24.8,24.8,4,0,0,20.8
2,13,2,22.8,74,0,-15,64,0,7,35,47,4,13,18.8,31.8,0,-3,-9,22.8
2,14,3,19.8,76.8,0,0,54.8,3,20,100,57,4,0,22.8,22.8,3,0,0,19.8
2,15,4,11.8,68.8,0,0,56.8,13,20,100,62,4,0,24.8,24.8,13,0,0,11.8
2,16,1,23,71.4,0,-24,70.4,0,15,75,75,4,5,30,35,0,-4,-12,23
2,17,5,11,62,0,0,42,5,20,100,35,4,0,14,14,3,0,0,11
2,18,5,27,77,0,-9,61,0,1,5,35,4,19,14,33,0,-2,-6,27
2,19,4,-5.2,45.8,0,-45,65.8,0,5,25,62,4,15,24.8,39.8,0,-15,-45,-5.2
2,20,1,29,81,0,0,58,2,20,100,75,4,0,30,30,1,0,0,29
3,1,4,29,97,0,-9,82,1,5,25,50,4,15,20,35,0,-2,-6,29
3,2,3,23.8,101.8,0,0,81.8,5,15,75,52,4,5,20.8,25.8,2,0,0,23.8
3,3,4,22,89.8,0,-12,81.8,5,15,75,50,4,5,20,25,3,0,0,22
3,4,1,29,88.2,0,-12,81.2,6,20,100,75,4,0,30,30,1,0,0,29
3,5,2,32,108.8,0,0,86.8,3,20,100,80,4,0,32,32,0,0,0,32
3,6,2,32,104.4,0,0,82.4,3,20,100,80,4,0,32,32,0,0,0,32
3,7,1,28,108,0,0,88,5,20,100,75,4,0,30,30,2,0,0,28
3,8,4,27,108,0,-3,86,0,10,50,50,4,10,20,30,0,-1,-3,27
3,9,5,23.2,92,0,-18,85,0,9,45,38,4,11,15.2,26.2,0,-1,-3,23.2
3,10,3,23.8,105,0,-6,88,2,15,75,52,4,5,20.8,25.8,2,0,0,23.8
3,11,5,24.2,92.4,0,-6,73.4,0,5,25,38,4,15,15.2,30.2,0,-2,-6,24.2
3,12,1,29,106.8,0,0,86.8,5,20,100,75,4,0,30,30,1,0,0,29
3,13,5,22.2,96.2,0,-21,95.2,3,4,20,38,4,16,15.2,31.2,3,-2,-6,22.2
3,14,4,20,96.8,0,0,74.8,3,20,100,50,4,0,20,20,0,0,0,20
3,15,2,32,100.8,0,0,88.8,13,20,100,80,4,0,32,32,0,0,0,32
3,16,3,10.8,82.2,0,-24,91.2,10,20,100,52,4,0,20.8,20.8,10,0,0,10.8
3,17,5,9.2,71.2,0,-3,57.2,8,20,100,38,4,0,15.2,15.2,3,-1,-3,9.2
3,18,3,-3.2,73.8,0,-51,99.8,0,2,10,52,4,18,20.8,38.8,0,-14,-42,-3.2
3,19,1,23,68.8,0,-57,100.8,0,15,75,75,4,5,30,35,0,-4,-12,23
3,20,2,32,113,0,0,90,2,20,100,80,4,0,32,32,0,0,0,32
4,1,1,24.6,121.6,0,-12,109.6,1,10,50,44,4,10,17.6,27.6,0,-1,-3,24.6
4,2,4,9,110.8,0,-18,110.8,7,15,75,60,4,5,24,29,2,-6,-18,9
4,3,3,26,115.8,0,-12,109.8,7,20,100,70,4,0,28,28,2,0,0,26
4,4,3,27,115.2,0,-12,109.2,7,20,100,70,4,0,28,28,1,0,0,27
4,5,5,26.4,135.2,0,0,113.2,3,20,100,66,4,0,26.4,26.4,0,0,0,26.4
4,6,1,12.6,117,0,0,100,8,20,100,44,4,0,17.6,17.6,5,0,0,12.6
4,7,2,20.6,128.6,0,0,111.6,8,20,100,59,4,0,23.6,23.6,3,0,0,20.6
4,8,5,25.4,133.4,0,-12,120.4,0,12,60,66,4,8,26.4,34.4,0,-3,-9,25.4
4,9,1,24.6,116.6,0,-24,115.6,0,7,35,44,4,13,17.6,30.6,0,-2,-6,24.6
4,10,5,32.4,137.4,0,-6,120.4,2,14,70,66,4,6,26.4,32.4,0,0,0,32.4
4,11,1,24.6,117,0,-12,104,0,7,35,44,4,13,17.6,30.6,0,-2,-6,24.6
4,12,4,20,126.8,0,0,110.8,9,20,100,60,4,0,24,24,4,0,0,20
4,13,4,9,105.2,0,-51,134.2,3,5,25,60,4,15,24,39,0,-10,-30,9
4,14,3,26,122.8,0,-12,112.8,3,10,50,70,4,10,28,38,0,-4,-12,26
4,15,4,14,114.8,0,0,112.8,23,20,100,60,4,0,24,24,10,0,0,14
4,16,5,23.4,105.6,0,-24,117.6,13,20,100,66,4,0,26.4,26.4,3,0,0,23.4
4,17,2,23.6,94.8,0,-3,82.8,10,18,90,59,4,2,23.6,25.6,2,0,0,23.6
4,18,2,27.6,101.4,0,-66,142.4,0,1,5,59,4,19,23.6,42.6,0,-5,-15,27.6
4,19,2,23.6,92.4,0,-57,124.4,0,20,100,59,4,0,23.6,23.6,0,0,0,23.6
4,20,3,27,140,0,0,118,3,20,100,70,4,0,28,28,1,0,0,27
5,1,2,35,156.6,0,-15,147.6,1,10,50,70,4,10,28,38,0,-1,-3,35
5,2,2,27,137.8,0,-18,138.8,8,20,100,70,4,0,28,28,1,0,0,27
5,3,3,23,138.8,0,-15,135.8,7,20,100,65,4,0,26,26,0,-1,-3,23
5,4,4,25,140.2,0,-12,135.2,8,18,90,60,4,2,24,26,1,0,0,25
5,5,2,28,163.2,0,0,141.2,3,20,100,70,4,0,28,28,0,0,0,28
5,6,1,16,133,0,0,120,12,20,100,50,4,0,20,20,4,0,0,16
5,7,2,28,156.6,0,0,139.6,8,20,100,70,4,0,28,28,0,0,0,28
5,8,3,31,164.4,0,-12,151.4,0,15,75,65,4,5,26,31,0,0,0,31
5,9,1,28,144.6,0,-30,149.6,0,6,30,50,4,14,20,34,0,-2,-6,28
5,10,4,29,166.4,0,-6,150.4,3,14,70,60,4,6,24,30,1,0,0,29
5,11,4,30,147,0,-18,140,0,8,40,60,4,12,24,36,0,-2,-6,30
5,12,1,20,146.8,0,0,130.8,9,20,100,50,4,0,20,20,0,0,0,20
5,13,1,30,135.2,0,-57,170.2,3,4,20,50,4,16,20,36,0,-2,-6,30
5,14,4,24,146.8,0,-12,136.8,3,20,100,60,4,0,24,24,0,0,0,24
5,15,5,20,134.8,0,0,140.8,31,20,100,70,4,0,28,28,8,0,0,20
5,16,5,25,130.6,0,-24,145.6,16,20,100,70,4,0,28,28,3,0,0,25
5,17,3,24,118.8,0,-3,108.8,12,20,100,65,4,0,26,26,2,0,0,24
5,18,5,25,126.4,0,-69,170.4,0,20,100,70,4,0,28,28,0,-1,-3,25
5,19,3,29,121.4,0,-63,160.4,1,10,50,65,4,10,26,36,1,-2,-6,29
5,20,5,4,144,0,-33,156,4,10,50,70,4,10,28,38,1,-11,-33,4
6,1,5,15,171.6,0,-24,172.6,2,15,75,50,4,5,20,25,1,-3,-9,15
6,2,1,26.2,164,0,-18,166,9,20,100,68,4,0,27.2,27.2,1,0,0,26.2
6,3,2,23.6,162.4,0,-15,159.4,7,20,100,59,4,0,23.6,23.6,0,0,0,23.6
6,4,3,32.6,172.8,0,-12,167.8,8,17,85,74,4,3,29.6,32.6,0,0,0,32.6
6,5,4,26.8,190,0,0,168,3,20,100,67,4,0,26.8,26.8,0,0,0,26.8
6,6,3,32.6,165.6,0,0,152.6,12,17,85,74,4,3,29.6,32.6,0,0,0,32.6
6,7,3,29.6,186.2,0,0,169.2,8,20,100,74,4,0,29.6,29.6,0,0,0,29.6
6,8,2,28.6,193,0,-12,180,0,15,75,59,4,5,23.6,28.6,0,0,0,28.6
6,9,1,24.2,168.8,0,-45,188.8,0,8,40,68,4,12,27.2,39.2,0,-5,-15,24.2
6,10,2,27.6,194,0,-6,179,4,15,75,59,4,5,23.6,28.6,1,0,0,27.6
6,11,2,31.6,178.6,0,-21,174.6,0,9,45,59,4,11,23.6,34.6,0,-1,-3,31.6
6,12,1,25.2,172,0,0,158,11,20,100,68,4,0,27.2,27.2,2,0,0,25.2
6,13,5,2,137.2,0,-87,205.2,6,5,25,50,4,15,20,35,3,-10,-30,2
6,14,4,33.8,180.6,0,-15,173.6,3,10,50,67,4,10,26.8,36.8,0,-1,-3,33.8
6,15,5,-1,133.8,0,-3,160.8,49,20,100,50,4,0,20,20,18,-1,-3,-1
6,16,3,29.6,160.2,0,-24,175.2,16,20,100,74,4,0,29.6,29.6,0,0,0,29.6
6,17,1,25.2,144,0,-3,136,14,20,100,68,4,0,27.2,27.2,2,0,0,25.2
6,18,4,26.8,153.2,0,-69,197.2,0,20,100,67,4,0,26.8,26.8,0,0,0,26.8
6,19,4,28.8,150.2,0,-63,190.2,2,17,85,67,4,3,26.8,29.8,1,0,0,28.8
6,20,5,6,150,0,-57,186,4,10,50,50,4,10,20,30,0,-8,-24,6
7,1,1,27.2,198.8,0,-27,202.8,2,13,65,58,4,7,23.2,30.2,0,-1,-3,27.2
7,2,3,21,185,0,-18,188,10,18,90,50,4,2,20,22,1,0,0,21
7,3,3,28,190.4,0,-15,187.4,7,12,60,50,4,8,20,28,0,0,0,28
7,4,5,28.4,201.2,0,-12,197.2,9,19,95,71,4,1,28.4,29.4,1,0,0,28.4
7,5,4,16.4,206.4,0,0,188.4,7,20,100,51,4,0,20.4,20.4,4,0,0,16.4
7,6,2,23.6,189.2,0,-6,183.2,13,17,85,69,4,3,27.6,30.6,1,-2,-6,23.6
7,7,3,17,203.2,0,0,191.2,13,18,90,50,4,2,20,22,5,0,0,17
7,8,1,25.2,218.2,0,-15,208.2,0,15,75,58,4,5,23.2,28.2,0,-1,-3,25.2
7,9,5,24.4,193.2,0,-57,225.2,0,12,60,71,4,8,28.4,36.4,0,-4,-12,24.4
7,10,2,20.6,214.6,0,-18,211.6,4,15,75,69,4,5,27.6,32.6,0,-4,-12,20.6
7,11,1,30.2,208.8,0,-24,207.8,0,10,50,58,4,10,23.2,33.2,0,-1,-3,30.2
7,12,4,20.4,192.4,0,0,178.4,11,20,100,51,4,0,20.4,20.4,0,0,0,20.4
7,13,4,28.4,165.6,0,-93,239.6,6,6,30,51,4,14,20.4,34.4,0,-2,-6,28.4
7,14,2,24.6,205.2,0,-21,204.2,3,17,85,69,4,3,27.6,30.6,0,-2,-6,24.6
7,15,2,20.6,154.4,0,-3,188.4,56,20,100,69,4,0,27.6,27.6,7,0,0,20.6
7,16,5,25.4,185.6,0,-24,203.6,19,20,100,71,4,0,28.4,28.4,3,0,0,25.4
7,17,1,20.2,164.2,0,-3,159.2,17,20,100,58,4,0,23.2,23.2,3,0,0,20.2
7,18,5,28.4,181.6,0,-69,225.6,0,20,100,71,4,0,28.4,28.4,0,0,0,28.4
7,19,3,20,170.2,0,-81,228.2,2,2,10,50,4,18,20,38,0,-6,-18,20
7,20,4,29.4,179.4,0,-63,221.4,4,5,25,51,4,15,20.4,35.4,0,-2,-6,29.4
8,1,2,31.4,230.2,0,-27,234.2,2,13,65,61,4,7,24.4,31.4,0,0,0,31.4
8,2,4,18.4,203.4,0,-24,214.4,12,18,90,61,4,2,24.4,26.4,2,-2,-6,18.4
8,3,1,29.4,219.8,0,-15,216.8,7,15,75,61,4,5,24.4,29.4,0,0,0,29.4
8,4,5,22.8,224,0,-12,223,12,13,65,47,4,7,18.8,25.8,3,0,0,22.8
8,5,4,22.4,228.8,0,0,212.8,9,20,100,61,4,0,24.4,24.4,2,0,0,22.4
8,6,3,24.8,214,0,-6,210,15,20,100,67,4,0,26.8,26.8,2,0,0,24.8
8,7,3,29.8,233,0,0,221,13,17,85,67,4,3,26.8,29.8,0,0,0,29.8
8,8,5,23.8,242,0,-15,233,1,14,70,47,4,6,18.8,24.8,1,0,0,23.8
8,9,3,30.8,224,0,-63,262,0,10,50,67,4,10,26.8,36.8,0,-2,-6,30.8
8,10,1,27.4,242,0,-18,240,5,16,80,61,4,4,24.4,28.4,1,0,0,27.4
8,11,2,25.4,234.2,0,-33,242.2,0,10,50,61,4,10,24.4,34.4,0,-3,-9,25.4
8,12,1,24.4,216.8,0,0,202.8,11,20,100,61,4,0,24.4,24.4,0,0,0,24.4
8,13,4,-0.6,165,0,-135,281,6,3,15,61,4,17,24.4,41.4,0,-14,-42,-0.6
8,14,2,25.4,230.6,0,-21,230.6,4,18,90,61,4,2,24.4,26.4,1,0,0,25.4
8,15,4,12.4,166.8,0,-3,212.8,68,20,100,61,4,0,24.4,24.4,12,0,0,12.4
8,16,2,22.4,208,0,-24,228,21,20,100,61,4,0,24.4,24.4,2,0,0,22.4
8,17,5,15.8,180,0,-3,178,20,20,100,47,4,0,18.8,18.8,3,0,0,15.8
8,18,3,26.8,208.4,0,-69,252.4,0,20,100,67,4,0,26.8,26.8,0,0,0,26.8
8,19,5,17.8,188,0,-102,267,2,0,0,47,4,20,18.8,38.8,0,-7,-21,17.8
8,20,1,31.4,210.8,0,-66,255.8,4,10,50,61,4,10,24.4,34.4,0,-1,-3,31.4
9,1,3,14.2,244.4,0,-30,253.4,4,14,70,33,4,6,13.2,19.2,2,-1,-3,14.2
9,2,5,24,227.4,0,-24,238.4,12,20,100,60,4,0,24,24,0,0,0,24
9,3,3,7.2,227,0,-18,235,15,15,75,33,4,5,13.2,18.2,8,-1,-3,7.2
9,4,4,20,244,0,-27,258,12,15,75,75,4,5,30,35,0,-5,-15,20
9,5,1,21.8,250.6,0,0,235.6,10,20,100,57,4,0,22.8,22.8,1,0,0,21.8
9,6,1,23.8,237.8,0,-6,235.8,17,17,85,57,4,3,22.8,25.8,2,0,0,23.8
9,7,2,31.8,264.8,0,0,252.8,13,17,85,72,4,3,28.8,31.8,0,0,0,31.8
9,8,5,30,272,0,-15,263,1,14,70,60,4,6,24,30,0,0,0,30
9,9,1,27.8,251.8,0,-63,289.8,0,15,75,57,4,5,22.8,27.8,0,0,0,27.8
9,10,2,30.8,272.8,0,-21,273.8,5,15,75,72,4,5,28.8,33.8,0,-1,-3,30.8
9,11,5,30,264.2,0,-36,275.2,0,11,55,60,4,9,24,33,0,-1,-3,30
9,12,2,28.8,245.6,0,0,231.6,11,20,100,72,4,0,28.8,28.8,0,0,0,28.8
9,13,3,14.2,179.2,0,-147,310.2,9,4,20,33,4,16,13.2,29.2,3,-4,-12,14.2
9,14,3,12.2,242.8,0,-42,263.8,4,0,0,33,4,20,13.2,33.2,0,-7,-21,12.2
9,15,4,25,191.8,0,-3,242.8,73,20,100,75,4,0,30,30,5,0,0,25
9,16,5,28,236,0,-24,257,22,15,75,60,4,5,24,29,1,0,0,28
9,17,4,30,210,0,-3,208,20,20,100,75,4,0,30,30,0,0,0,30
9,18,4,30,238.4,0,-69,282.4,0,20,100,75,4,0,30,30,0,0,0,30
9,19,2,27.8,215.8,0,-102,295.8,3,20,100,72,4,0,28.8,28.8,1,0,0,27.8
9,20,1,28.8,239.6,0,-75,293.6,4,5,25,57,4,15,22.8,37.8,0,-3,-9,28.8
10,1,1,30.4,274.8,0,-33,286.8,4,5,25,46,4,15,18.4,33.4,0,-1,-3,30.4
10,2,2,15.2,242.6,0,-24,257.6,16,20,100,48,4,0,19.2,19.2,4,0,0,15.2
10,3,5,31.8,258.8,0,-18,266.8,15,15,75,67,4,5,26.8,31.8,0,0,0,31.8
10,4,5,29.8,273.8,0,-27,287.8,12,17,85,67,4,3,26.8,29.8,0,0,0,29.8
10,5,1,14.4,265,0,0,254,14,20,100,46,4,0,18.4,18.4,4,0,0,14.4
10,6,5,31.8,269.6,0,-6,267.6,17,15,75,67,4,5,26.8,31.8,0,0,0,31.8
10,7,3,21.4,286.2,0,-6,280.2,13,17,85,61,4,3,24.4,27.4,0,-2,-6,21.4
10,8,3,18.4,290.4,0,-27,293.4,1,14,70,61,4,6,24.4,30.4,0,-4,-12,18.4
10,9,2,25.2,277,0,-66,318,0,11,55,48,4,9,19.2,28.2,0,-1,-3,25.2
10,10,5,26.8,299.6,0,-21,300.6,5,20,100,67,4,0,26.8,26.8,0,0,0,26.8
10,11,2,24.2,288.4,0,-39,302.4,0,12,60,48,4,8,19.2,27.2,0,-1,-3,24.2
10,12,4,17,262.6,0,-3,251.6,11,20,100,50,4,0,20,20,0,-1,-3,17
10,13,4,32,211.2,0,-150,345.2,9,5,25,50,4,15,20,35,0,-1,-3,32
10,14,2,28.2,271,0,-48,298,4,5,25,48,4,15,19.2,34.2,0,-2,-6,28.2
10,15,3,11.4,203.2,0,-3,267.2,86,20,100,61,4,0,24.4,24.4,13,0,0,11.4
10,16,3,13.4,249.4,0,-45,291.4,22,10,50,61,4,10,24.4,34.4,0,-7,-21,13.4
10,17,4,15,225,0,-6,228,22,20,100,50,4,0,20,20,2,-1,-3,15
10,18,1,18.4,256.8,0,-69,300.8,0,20,100,46,4,0,18.4,18.4,0,0,0,18.4
10,19,4,30,245.8,0,-105,330.8,5,5,25,50,4,15,20,35,2,-1,-3,30
10,20,1,28.4,268,0,-84,331,4,1,5,46,4,19,18.4,37.4,0,-3,-9,28.4
11,1,3,29.2,304,0,-33,316,4,10,50,48,4,10,19.2,29.2,0,0,0,29.2
11,2,4,26,268.6,0,-30,289.6,16,10,50,55,4,10,22,32,0,-2,-6,26
11,3,4,27,285.8,0,-18,293.8,15,15,75,55,4,5,22,27,0,0,0,27
11,4,4,20,293.8,0,-27,311.8,16,18,90,55,4,2,22,24,4,0,0,20
11,5,5,30.8,295.8,0,0,284.8,14,20,100,77,4,0,30.8,30.8,0,0,0,30.8
11,6,1,20.4,290,0,-6,290,19,20,100,56,4,0,22.4,22.4,2,0,0,20.4
11,7,2,24,310.2,0,-12,311.2,14,17,85,70,4,3,28,31,1,-2,-6,24
11,8,5,30.8,321.2,0,-27,324.2,1,20,100,77,4,0,30.8,30.8,0,0,0,30.8
11,9,2,11,288,0,-90,353,0,13,65,70,4,7,28,35,0,-8,-24,11
11,10,5,33.8,333.4,0,-21,334.4,5,17,85,77,4,3,30.8,33.8,0,0,0,33.8
11,11,4,24,312.4,0,-45,332.4,0,12,60,55,4,8,22,30,0,-2,-6,24
11,12,1,19.4,282,0,-3,274,14,20,100,56,4,0,22.4,22.4,3,0,0,19.4
11,13,1,26.4,237.6,0,-162,383.6,9,4,20,56,4,16,22.4,38.4,0,-4,-12,26.4
11,14,1,27.4,298.4,0,-51,328.4,4,12,60,56,4,8,22.4,30.4,0,-1,-3,27.4
11,15,2,21,224.2,0,-3,295.2,93,20,100,70,4,0,28,28,7,0,0,21
11,16,3,20.2,269.6,0,-45,315.6,26,15,75,48,4,5,19.2,24.2,4,0,0,20.2
11,17,2,26,251,0,-6,256,24,20,100,70,4,0,28,28,2,0,0,26
11,18,5,30.8,287.6,0,-69,331.6,0,20,100,77,4,0,30.8,30.8,0,0,0,30.8
11,19,3,24.2,270,0,-117,367,5,3,15,48,4,17,19.2,36.2,0,-4,-12,24.2
11,20,3,19.2,287.2,0,-84,350.2,4,20,100,48,4,0,19.2,19.2,0,0,0,19.2
12,1,1,21,325,0,-39,343,4,13,65,50,4,7,20,27,0,-2,-6,21
12,2,2,25.8,294.4,0,-36,321.4,16,15,75,67,4,5,26.8,31.8,0,-2,-6,25.8
12,3,2,25.8,311.6,0,-24,325.6,15,15,75,67,4,5,26.8,31.8,0,-2,-6,25.8
12,4,2,27.8,321.6,0,-27,341.6,18,17,85,67,4,3,26.8,29.8,2,0,0,27.8
12,5,4,25.6,321.4,0,0,310.4,14,20,100,64,4,0,25.6,25.6,0,0,0,25.6
12,6,2,24.8,314.8,0,-6,316.8,21,20,100,67,4,0,26.8,26.8,2,0,0,24.8
12,7,3,21,331.2,0,-12,332.2,14,17,85,45,4,3,18,21,0,0,0,21
12,8,5,32,353.2,0,-27,356.2,1,20,100,80,4,0,32,32,0,0,0,32
12,9,3,22,310,0,-90,375,0,16,80,45,4,4,18,22,0,0,0,22
12,10,5,32,365.4,0,-21,366.4,5,20,100,80,4,0,32,32,0,0,0,32
12,11,4,33.6,346,0,-45,366,0,12,60,64,4,8,25.6,33.6,0,0,0,33.6
12,12,5,32,314,0,-3,306,14,20,100,80,4,0,32,32,0,0,0,32
12,13,1,20,257.6,0,-168,418.6,18,5,25,50,4,15,20,35,9,-2,-6,20
12,14,4,33.6,332,0,-51,362,4,12,60,64,4,8,25.6,33.6,0,0,0,33.6
12,15,5,32,256.2,0,-3,327.2,93,20,100,80,4,0,32,32,0,0,0,32
12,16,1,16,285.6,0,-57,343.6,26,12,60,50,4,8,20,28,0,-4,-12,16
12,17,1,9,260,0,-15,276,26,20,100,50,4,0,20,20,2,-3,-9,9
12,18,4,25.6,313.2,0,-69,357.2,0,20,100,64,4,0,25.6,25.6,0,0,0,25.6
12,19,3,31,301,0,-117,398,5,7,35,45,4,13,18,31,0,0,0,31
12,20,3,33,320.2,0,-84,383.2,4,5,25,45,4,15,18,33,0,0,0,33
13,1,4,32.4,357.4,0,-39,375.4,4,12,60,61,4,8,24.4,32.4,0,0,0,32.4
13,2,4,29.4,323.8,0,-36,350.8,16,15,75,61,4,5,24.4,29.4,0,0,0,29.4
13,3,5,29.6,341.2,0,-27,358.2,15,15,75,69,4,5,27.6,32.6,0,-1,-3,29.6
13,4,2,23.4,345,0,-27,369,22,17,85,61,4,3,24.4,27.4,4,0,0,23.4
13,5,2,21.4,342.8,0,0,334.8,17,20,100,61,4,0,24.4,24.4,3,0,0,21.4
13,6,1,23.2,338,0,-6,342,23,20,100,63,4,0,25.2,25.2,2,0,0,23.2
13,7,1,26.2,357.4,0,-12,360.4,16,17,85,63,4,3,25.2,28.2,2,0,0,26.2
13,8,1,25.2,378.4,0,-27,381.4,1,20,100,63,4,0,25.2,25.2,0,0,0,25.2
13,9,4,30.4,340.4,0,-90,405.4,0,14,70,61,4,6,24.4,30.4,0,0,0,30.4
13,10,2,21.4,386.8,0,-21,390.8,8,20,100,61,4,0,24.4,24.4,3,0,0,21.4
13,11,3,15.2,361.2,0,-60,396.2,0,13,65,58,4,7,23.2,30.2,0,-5,-15,15.2
13,12,5,25.6,339.6,0,-3,333.6,16,20,100,69,4,0,27.6,27.6,2,0,0,25.6
13,13,1,27.2,284.8,0,-180,457.8,18,6,30,63,4,14,25.2,39.2,0,-4,-12,27.2
13,14,4,24.4,356.4,0,-51,386.4,4,20,100,61,4,0,24.4,24.4,0,0,0,24.4
13,15,3,8.2,264.4,0,-3,350.4,108,20,100,58,4,0,23.2,23.2,15,0,0,8.2
13,16,5,30.6,316.2,0,-60,377.2,26,14,70,69,4,6,27.6,33.6,0,-1,-3,30.6
13,17,3,20.2,280.2,0,-15,299.2,29,20,100,58,4,0,23.2,23.2,3,0,0,20.2
13,18,5,27.6,340.8,0,-69,384.8,0,20,100,69,4,0,27.6,27.6,0,0,0,27.6
13,19,2,10.4,311.4,0,-147,438.4,5,4,20,61,4,16,24.4,40.4,0,-10,-30,10.4
13,20,3,-0.8,319.4,0,-123,421.4,4,5,25,58,4,15,23.2,38.2,0,-13,-39,-0.8
14,1,2,22.4,379.8,0,-51,409.8,4,14,70,71,4,6,28.4,34.4,0,-4,-12,22.4
14,2,3,28.4,352.2,0,-36,380.2,17,15,75,61,4,5,24.4,29.4,1,0,0,28.4
14,3,3,24.4,365.6,0,-27,382.6,15,20,100,61,4,0,24.4,24.4,0,0,0,24.4
14,4,4,26.2,371.2,0,-27,396.2,23,20,100,68,4,0,27.2,27.2,1,0,0,26.2
14,5,4,29.2,372,0,0,364,17,18,90,68,4,2,27.2,29.2,0,0,0,29.2
14,6,5,32,370,0,-6,374,23,20,100,80,4,0,32,32,0,0,0,32
14,7,2,25.4,382.8,0,-18,391.8,16,17,85,71,4,3,28.4,31.4,0,-2,-6,25.4
14,8,1,23.2,401.6,0,-27,404.6,1,20,100,58,4,0,23.2,23.2,0,0,0,23.2
14,9,4,31.2,371.6,0,-93,439.6,0,13,65,68,4,7,27.2,34.2,0,-1,-3,31.2
14,10,5,32,418.8,0,-21,422.8,8,20,100,80,4,0,32,32,0,0,0,32
14,11,1,30.2,391.4,0,-60,426.4,0,13,65,58,4,7,23.2,30.2,0,0,0,30.2
14,12,5,32,371.6,0,-3,365.6,16,20,100,80,4,0,32,32,0,0,0,32
14,13,1,36.2,321,0,-180,494,18,7,35,58,4,13,23.2,36.2,0,0,0,36.2
14,14,3,28.4,384.8,0,-51,414.8,4,16,80,61,4,4,24.4,28.4,0,0,0,28.4
14,15,2,22.4,286.8,0,-3,378.8,114,20,100,71,4,0,28.4,28.4,6,0,0,22.4
14,16,4,30.2,346.4,0,-60,407.4,26,17,85,68,4,3,27.2,30.2,0,0,0,30.2
14,17,2,28.4,308.6,0,-15,327.6,29,20,100,71,4,0,28.4,28.4,0,0,0,28.4
14,18,5,32,372.8,0,-69,416.8,0,20,100,80,4,0,32,32,0,0,0,32
14,19,1,25.2,336.6,0,-147,463.6,5,18,90,58,4,2,23.2,25.2,0,0,0,25.2
14,20,3,31.4,350.8,0,-126,455.8,4,10,50,61,4,10,24.4,34.4,0,-1,-3,31.4
15,1,5,25.8,405.6,0,-51,436.6,5,16,80,57,4,4,22.8,26.8,1,0,0,25.8
15,2,5,26.8,379,0,-36,408,18,15,75,57,4,5,22.8,27.8,1,0,0,26.8
15,3,2,26.2,391.8,0,-33,414.8,15,15,75,68,4,5,27.2,32.2,0,-2,-6,26.2
15,4,3,28.8,400,0,-27,425,23,16,80,62,4,4,24.8,28.8,0,0,0,28.8
15,5,3,28.8,400.8,0,0,392.8,17,16,80,62,4,4,24.8,28.8,0,0,0,28.8
15,6,1,30.8,400.8,0,-6,404.8,23,20,100,77,4,0,30.8,30.8,0,0,0,30.8
15,7,1,24.8,407.6,0,-27,425.6,16,17,85,77,4,3,30.8,33.8,0,-3,-9,24.8
15,8,3,29.8,431.4,0,-27,434.4,1,15,75,62,4,5,24.8,29.8,0,0,0,29.8
15,9,4,28.2,399.8,0,-93,467.8,0,15,75,58,4,5,23.2,28.2,0,0,0,28.2
15,10,2,24.2,443,0,-21,450,11,20,100,68,4,0,27.2,27.2,3,0,0,24.2
15,11,2,22.2,413.6,0,-72,460.6,0,13,65,68,4,7,27.2,34.2,0,-4,-12,22.2
15,12,2,24.2,395.8,0,-3,392.8,19,20,100,68,4,0,27.2,27.2,3,0,0,24.2
15,13,5,28.8,349.8,0,-186,528.8,18,8,40,57,4,12,22.8,34.8,0,-2,-6,28.8
15,14,3,29.8,414.6,0,-51,444.6,4,15,75,62,4,5,24.8,29.8,0,0,0,29.8
15,15,1,27.8,314.6,0,-3,409.6,117,20,100,77,4,0,30.8,30.8,3,0,0,27.8
15,16,5,24.8,371.2,0,-60,432.2,26,18,90,57,4,2,22.8,24.8,0,0,0,24.8
15,17,4,21.2,329.8,0,-15,350.8,31,20,100,58,4,0,23.2,23.2,2,0,0,21.2
15,18,1,30.8,403.6,0,-69,447.6,0,20,100,77,4,0,30.8,30.8,0,0,0,30.8
15,19,4,29.2,365.8,0,-153,498.8,5,8,40,58,4,12,23.2,35.2,0,-2,-6,29.2
15,20,4,28.2,379,0,-126,484,4,15,75,58,4,5,23.2,28.2,0,0,0,28.2
16,1,2,32.4,438,0,-51,469,5,14,70,66,4,6,26.4,32.4,0,0,0,32.4
16,2,1,24.8,403.8,0,-36,433.8,19,15,75,52,4,5,20.8,25.8,1,0,0,24.8
16,3,3,25,416.8,0,-33,439.8,15,15,75,50,4,5,20,25,0,0,0,25
16,4,2,31.4,431.4,0,-27,456.4,23,15,75,66,4,5,26.4,31.4,0,0,0,31.4
16,5,1,24.8,425.6,0,0,418.6,18,15,75,52,4,5,20.8,25.8,1,0,0,24.8
16,6,5,26.2,427,0,-6,432,24,20,100,68,4,0,27.2,27.2,1,0,0,26.2
16,7,2,29.4,437,0,-27,455,16,17,85,66,4,3,26.4,29.4,0,0,0,29.4
16,8,1,24.8,456.2,0,-27,459.2,1,16,80,52,4,4,20.8,24.8,0,0,0,24.8
16,9,5,16.2,416,0,-111,502,0,13,65,68,4,7,27.2,34.2,0,-6,-18,16.2
16,10,4,24.2,467.2,0,-21,477.2,14,20,100,68,4,0,27.2,27.2,3,0,0,24.2
16,11,3,25,438.6,0,-72,486.6,1,14,70,50,4,6,20,26,1,0,0,25
16,12,4,25.2,421,0,-3,420,21,20,100,68,4,0,27.2,27.2,2,0,0,25.2
16,13,1,28.8,378.6,0,-192,563.6,18,6,30,52,4,14,20.8,34.8,0,-2,-6,28.8
16,14,5,23.2,437.8,0,-60,476.8,4,15,75,68,4,5,27.2,32.2,0,-3,-9,23.2
16,15,5,19.2,333.8,0,-3,436.8,125,20,100,68,4,0,27.2,27.2,8,0,0,19.2
16,16,3,20,391.2,0,-60,457.2,31,15,75,50,4,5,20,25,5,0,0,20
16,17,4,28.2,358,0,-15,380,32,18,90,68,4,2,27.2,29.2,1,0,0,28.2
16,18,2,26.4,430,0,-69,474,0,20,100,66,4,0,26.4,26.4,0,0,0,26.4
16,19,4,19.2,385,0,-171,536,5,10,50,68,4,10,27.2,37.2,0,-6,-18,19.2
16,20,3,16,395,0,-144,518,4,6,30,50,4,14,20,34,0,-6,-18,16
17,1,4,32,470,0,-51,501,5,16,80,70,4,4,28,32,0,0,0,32
17,2,5,28,431.8,0,-39,464.8,19,15,75,65,4,5,26,31,0,-1,-3,28
17,3,3,14.8,431.6,0,-51,472.6,15,10,50,57,4,10,22.8,32.8,0,-6,-18,14.8
17,4,5,26,457.4,0,-27,484.4,25,18,90,65,4,2,26,28,2,0,0,26
17,5,5,28,453.6,0,-3,449.6,18,15,75,65,4,5,26,31,0,-1,-3,28
17,6,1,28,455,0,-6,460,24,20,100,70,4,0,28,28,0,0,0,28
17,7,5,29,466,0,-27,484,16,17,85,65,4,3,26,29,0,0,0,29
17,8,1,30,486.2,0,-30,492.2,1,15,75,70,4,5,28,33,0,-1,-3,30
17,9,3,17.8,433.8,0,-120,528.8,0,16,80,57,4,4,22.8,26.8,0,-3,-9,17.8
17,10,4,28,495.2,0,-21,505.2,14,20,100,70,4,0,28,28,0,0,0,28
17,11,4,34,472.6,0,-72,520.6,1,14,70,70,4,6,28,34,0,0,0,34
17,12,2,17.4,438.4,0,-6,440.4,21,20,100,51,4,0,20.4,20.4,0,-1,-3,17.4
17,13,2,29.4,408,0,-192,595,20,9,45,51,4,11,20.4,31.4,2,0,0,29.4
17,14,2,25.4,463.2,0,-60,502.2,4,15,75,51,4,5,20.4,25.4,0,0,0,25.4
17,15,3,7.8,341.6,0,-3,459.6,140,20,100,57,4,0,22.8,22.8,15,0,0,7.8
17,16,1,30,421.2,0,-63,490.2,31,15,75,70,4,5,28,33,0,-1,-3,30
17,17,1,26,384,0,-15,408,34,20,100,70,4,0,28,28,2,0,0,26
17,18,4,28,458,0,-69,502,0,20,100,70,4,0,28,28,0,0,0,28
17,19,3,13.8,398.8,0,-189,567.8,5,11,55,57,4,9,22.8,31.8,0,-6,-18,13.8
17,20,2,30.4,425.4,0,-147,551.4,4,7,35,51,4,13,20.4,33.4,0,-1,-3,30.4
18,1,1,24.2,494.2,0,-51,526.2,6,16,80,53,4,4,21.2,25.2,1,0,0,24.2
18,2,2,22.6,454.4,0,-39,489.4,21,15,75,49,4,5,19.6,24.6,2,0,0,22.6
18,3,3,9,440.6,0,-78,508.6,15,10,50,65,4,10,26,36,0,-9,-27,9
18,4,4,31,488.4,0,-27,515.4,25,17,85,70,4,3,28,31,0,0,0,31
18,5,1,24.2,477.8,0,-3,475.8,20,15,75,53,4,5,21.2,26.2,2,0,0,24.2
18,6,5,16.2,471.2,0,-6,480.2,28,17,85,43,4,3,17.2,20.2,4,0,0,16.2
18,7,1,24.2,490.2,0,-27,508.2,16,17,85,53,4,3,21.2,24.2,0,0,0,24.2
18,8,3,19,505.2,0,-42,523.2,1,15,75,65,4,5,26,31,0,-4,-12,19
18,9,2,25.6,459.4,0,-120,554.4,0,14,70,49,4,6,19.6,25.6,0,0,0,25.6
18,10,2,18.6,513.8,0,-42,544.8,14,0,0,49,4,20,19.6,39.6,0,-7,-21,18.6
18,11,5,21.2,493.8,0,-72,543.8,3,14,70,43,4,6,17.2,23.2,2,0,0,21.2
18,12,3,23,461.4,0,-6,466.4,24,20,100,65,4,0,26,26,3,0,0,23
18,13,5,23.2,431.2,0,-201,627.2,20,5,25,43,4,15,17.2,32.2,0,-3,-9,23.2
18,14,4,33,496.2,0,-60,535.2,4,15,75,70,4,5,28,33,0,0,0,33
18,15,3,16,357.6,0,-3,485.6,150,20,100,65,4,0,26,26,10,0,0,16
18,16,4,30,451.2,0,-63,520.2,31,18,90,70,4,2,28,30,0,0,0,30
18,17,2,14.6,398.6,0,-15,427.6,39,20,100,49,4,0,19.6,19.6,5,0,0,14.6
18,18,4,28,486,0,-69,530,0,20,100,70,4,0,28,28,0,0,0,28
18,19,5,21.2,420,0,-198,598,5,7,35,43,4,13,17.2,30.2,0,-3,-9,21.2
18,20,1,27.2,452.6,0,-156,587.6,4,5,25,53,4,15,21.2,36.2,0,-3,-9,27.2
19,1,5,30.4,524.6,0,-51,556.6,6,16,80,66,4,4,26.4,30.4,0,0,0,30.4
19,2,4,26.2,480.6,0,-39,517.6,23,15,75,58,4,5,23.2,28.2,2,0,0,26.2
19,3,4,20.2,460.8,0,-78,531.8,18,20,100,58,4,0,23.2,23.2,3,0,0,20.2
19,4,2,20,508.4,0,-36,544.4,25,15,75,60,4,5,24,29,0,-3,-9,20
19,5,1,29.8,507.6,0,-3,505.6,20,15,75,62,4,5,24.8,29.8,0,0,0,29.8
19,6,4,20.2,491.4,0,-6,503.4,31,20,100,58,4,0,23.2,23.2,3,0,0,20.2
19,7,1,27.8,518,0,-27,536,16,17,85,62,4,3,24.8,27.8,0,0,0,27.8
19,8,2,20,525.2,0,-51,552.2,1,15,75,60,4,5,24,29,0,-3,-9,20
19,9,1,32.8,492.2,0,-120,587.2,0,12,60,62,4,8,24.8,32.8,0,0,0,32.8
19,10,1,26.8,540.6,0,-42,571.6,14,18,90,62,4,2,24.8,26.8,0,0,0,26.8
19,11,5,32.4,526.2,0,-72,576.2,3,14,70,66,4,6,26.4,32.4,0,0,0,32.4
19,12,5,26.4,487.8,0,-6,492.8,24,20,100,66,4,0,26.4,26.4,0,0,0,26.4
19,13,2,16,447.2,0,-219,661.2,20,10,50,60,4,10,24,34,0,-6,-18,16
19,14,5,30.4,526.6,0,-60,565.6,4,16,80,66,4,4,26.4,30.4,0,0,0,30.4
19,15,2,12,369.6,0,-3,509.6,162,20,100,60,4,0,24,24,12,0,0,12
19,16,3,30,481.2,0,-63,550.2,31,20,100,75,4,0,30,30,0,0,0,30
19,17,3,30,428.6,0,-15,457.6,39,20,100,75,4,0,30,30,0,0,0,30
19,18,3,30,516,0,-69,560,0,20,100,75,4,0,30,30,0,0,0,30
19,19,3,35,455,0,-198,633,5,15,75,75,4,5,30,35,0,0,0,35
19,20,4,16.2,468.8,0,-180,627.8,4,3,15,58,4,17,23.2,40.2,0,-8,-24,16.2
20,1,3,28.2,552.8,1,-51,584.8,6,15,75,58,4,5,23.2,28.2,0,0,0,28.2
20,2,4,30.2,510.8,1,-39,547.8,23,15,75,63,4,5,25.2,30.2,0,0,0,30.2
20,3,3,31.2,492,1,-78,563,18,12,60,58,4,8,23.2,31.2,0,0,0,31.2
20,4,4,29.2,537.6,1,-36,573.6,25,16,80,63,4,4,25.2,29.2,0,0,0,29.2
20,5,5,33,540.6,1,-3,538.6,20,15,75,70,4,5,28,33,0,0,0,33
20,6,5,28,519.4,1,-6,531.4,31,20,100,70,4,0,28,28,0,0,0,28
20,7,2,15.8,533.8,1,-33,561.8,20,17,85,57,4,3,22.8,25.8,4,-2,-6,15.8
20,8,3,28.2,553.4,1,-51,580.4,1,15,75,58,4,5,23.2,28.2,0,0,0,28.2
20,9,1,32.8,525,1,-120,620,0,10,50,57,4,10,22.8,32.8,0,0,0,32.8
20,10,1,18.8,559.4,1,-42,594.4,18,20,100,57,4,0,22.8,22.8,4,0,0,18.8
20,11,4,31.2,557.4,1,-72,607.4,3,14,70,63,4,6,25.2,31.2,0,0,0,31.2
20,12,4,27.2,515,1,-6,520,24,18,90,63,4,2,25.2,27.2,0,0,0,27.2
20,13,1,23.8,471,1,-231,697,20,7,35,57,4,13,22.8,35.8,0,-4,-12,23.8
20,14,3,27.2,553.8,1,-60,592.8,4,16,80,58,4,4,23.2,27.2,0,0,0,27.2
20,15,2,10.8,380.4,1,-3,532.4,174,20,100,57,4,0,22.8,22.8,12,0,0,10.8
20,16,5,33,514.2,1,-63,583.2,31,15,75,70,4,5,28,33,0,0,0,33
20,17,2,19.8,448.4,1,-15,480.4,42,20,100,57,4,0,22.8,22.8,3,0,0,19.8
20,18,1,22.8,538.8,1,-69,582.8,0,20,100,57,4,0,22.8,22.8,0,0,0,22.8
20,19,2,-8.2,446.8,1,-249,675.8,5,0,0,57,4,20,22.8,42.8,0,-17,-51,-8.2
20,20,5,28,496.8,1,-180,655.8,4,20,100,70,4,0,28,28,0,0,0,28
