Period,Subject,Group,Profit,TotalProfit,Participate,Total_Deduct,Total_First_Income,Total_Cost,contribution,percentContribution,sumContribution,n,Profit1Own,Profit1Group,Profit1,Cost,ReceivedPoints,Reduction,Profit2,Temp_Profit,Punish10,Punish10u,Punish10d,TotalProfitEnd,Punish20,Punish20u,Punish20d
1,1,6,18.4,43.4,0,-3,21.4,0,15,75,41,4,5,16.4,21.4,0,-1,-3,18.4,21.4,-,-,-,18.4,-,-,-
1,2,3,12,37,0,0,22,10,10,50,30,4,10,12,22,10,0,0,12,12,-,-,-,12,-,-,-
1,3,4,27.4,52.4,0,-9,36.4,0,6,30,56,4,14,22.4,36.4,0,-3,-9,27.4,36.4,-,-,-,27.4,-,-,-
1,4,5,20.2,45.2,0,0,23.2,3,10,50,33,4,10,13.2,23.2,3,0,0,20.2,20.2,-,-,-,20.2,-,-,-
1,5,1,31.4,56.4,0,-3,34.4,0,2,10,41,4,18,16.4,34.4,0,-1,-3,31.4,34.4,-,-,-,31.4,-,-,-
1,6,1,32.4,57.4,0,0,32.4,0,4,20,41,4,16,16.4,32.4,0,0,0,32.4,32.4,-,-,-,32.4,-,-,-
1,7,3,-13,12,0,-45,32,0,0,0,30,4,20,12,32,0,-15,-45,-13,32,-,-,-,0,-,-,-
1,8,1,16.4,41.4,0,0,16.4,0,20,100,41,4,0,16.4,16.4,0,0,0,16.4,16.4,-,-,-,16.4,-,-,-
1,9,2,10.6,35.6,0,0,21.6,11,20,100,54,4,0,21.6,21.6,11,0,0,10.6,10.6,-,-,-,10.6,-,-,-
1,10,2,15.6,40.6,0,-9,28.6,4,13,65,54,4,7,21.6,28.6,4,-3,-9,15.6,24.6,-,-,-,15.6,-,-,-
1,11,6,14.4,39.4,0,-15,32.4,3,4,20,41,4,16,16.4,32.4,3,-5,-15,14.4,29.4,-,-,-,14.4,-,-,-
1,12,4,22.4,47.4,0,0,22.4,0,20,100,56,4,0,22.4,22.4,0,0,0,22.4,22.4,-,-,-,22.4,-,-,-
1,13,1,20.4,45.4,0,0,21.4,1,15,75,41,4,5,16.4,21.4,1,0,0,20.4,20.4,-,-,-,20.4,-,-,-
1,14,6,5.4,30.4,0,-3,18.4,10,18,90,41,4,2,16.4,18.4,10,-1,-3,5.4,8.4,-,-,-,5.4,-,-,-
1,15,5,25.2,50.2,0,0,25.2,0,8,40,33,4,12,13.2,25.2,0,0,0,25.2,25.2,-,-,-,25.2,-,-,-
1,16,6,14.4,39.4,0,-18,32.4,0,4,20,41,4,16,16.4,32.4,0,-6,-18,14.4,32.4,-,-,-,14.4,-,-,-
1,17,4,26.4,51.4,0,0,27.4,1,15,75,56,4,5,22.4,27.4,1,0,0,26.4,26.4,-,-,-,26.4,-,-,-
1,18,2,22.6,47.6,0,-3,26.6,1,15,75,54,4,5,21.6,26.6,1,-1,-3,22.6,25.6,-,-,-,22.6,-,-,-
1,19,2,-0.4,24.6,0,-36,35.6,0,6,30,54,4,14,21.6,35.6,0,-12,-36,-0.4,35.6,-,-,-,0,-,-,-
1,20,3,20,45,0,0,22,2,10,50,30,4,10,12,22,2,0,0,20,20,-,-,-,20,-,-,-
1,21,4,25.4,50.4,0,0,27.4,2,15,75,56,4,5,22.4,27.4,2,0,0,25.4,25.4,-,-,-,25.4,-,-,-
1,22,5,15.2,40.2,0,0,18.2,3,15,75,33,4,5,13.2,18.2,3,0,0,15.2,15.2,-,-,-,15.2,-,-,-
1,23,5,15.2,40.2,0,-18,33.2,0,0,0,33,4,20,13.2,33.2,0,-6,-18,15.2,33.2,-,-,-,15.2,-,-,-
1,24,3,19,44,0,0,22,3,10,50,30,4,10,12,22,3,0,0,19,19,-,-,-,19,-,-,-
2,1,6,12.2,55.6,0,-6,36.6,0,20,100,38,4,0,15.2,15.2,0,-1,-3,12.2,15.2,-,-,-,30.6,-,-,-
2,2,3,27.2,64.2,0,0,49.2,10,8,40,38,4,12,15.2,27.2,0,0,0,27.2,27.2,-,-,-,39.2,-,-,-
2,3,2,25.2,77.6,0,-9,61.6,0,8,40,33,4,12,13.2,25.2,0,0,0,25.2,25.2,-,-,-,52.6,-,-,-
2,4,4,20.4,65.6,0,0,45.6,5,10,50,31,4,10,12.4,22.4,2,0,0,20.4,20.4,-,-,-,40.6,-,-,-
2,5,4,27.4,83.8,0,-6,64.8,0,2,10,31,4,18,12.4,30.4,0,-1,-3,27.4,30.4,-,-,-,58.8,-,-,-
2,6,4,25.4,82.8,0,-3,60.8,0,4,20,31,4,16,12.4,28.4,0,-1,-3,25.4,28.4,-,-,-,57.8,-,-,-
2,7,6,20.2,32.2,0,-60,67.2,0,0,0,38,4,20,15.2,35.2,0,-5,-15,20.2,35.2,-,-,-,7.2,-,-,-
2,8,5,22,63.4,0,0,38.4,0,20,100,55,4,0,22,22,0,0,0,22,22,-,-,-,38.4,-,-,-
2,9,5,11,46.6,0,0,43.6,22,20,100,55,4,0,22,22,11,0,0,11,11,-,-,-,21.6,-,-,-
2,10,6,12.2,52.8,0,-12,50.8,11,13,65,38,4,7,15.2,22.2,7,-1,-3,12.2,15.2,-,-,-,27.8,-,-,-
2,11,6,22.2,61.6,0,-21,62.6,5,5,25,38,4,15,15.2,30.2,2,-2,-6,22.2,28.2,-,-,-,36.6,-,-,-
2,12,3,24.2,71.6,0,0,46.6,0,11,55,38,4,9,15.2,24.2,0,0,0,24.2,24.2,-,-,-,46.6,-,-,-
2,13,4,17.4,62.8,0,0,38.8,1,15,75,31,4,5,12.4,17.4,0,0,0,17.4,17.4,-,-,-,37.8,-,-,-
2,14,5,18,48.4,0,-6,45.4,16,15,75,55,4,5,22,27,6,-1,-3,18,21,-,-,-,23.4,-,-,-
2,15,2,23.2,73.4,0,0,48.4,0,10,50,33,4,10,13.2,23.2,0,0,0,23.2,23.2,-,-,-,48.4,-,-,-
2,16,3,30.2,69.6,0,-18,62.6,0,5,25,38,4,15,15.2,30.2,0,0,0,30.2,30.2,-,-,-,44.6,-,-,-
2,17,1,28.4,79.8,0,0,56.8,2,15,75,61,4,5,24.4,29.4,1,0,0,28.4,28.4,-,-,-,54.8,-,-,-
2,18,1,28.4,76,0,-3,55,1,16,80,61,4,4,24.4,28.4,0,0,0,28.4,28.4,-,-,-,51,-,-,-
2,19,2,24.2,48.8,0,-39,62.8,0,6,30,33,4,14,13.2,27.2,0,-1,-3,24.2,27.2,-,-,-,23.8,-,-,-
2,20,1,28.4,73.4,0,-6,56.4,2,10,50,61,4,10,24.4,34.4,0,-2,-6,28.4,34.4,-,-,-,48.4,-,-,-
2,21,1,23.4,73.8,0,0,51.8,3,20,100,61,4,0,24.4,24.4,1,0,0,23.4,23.4,-,-,-,48.8,-,-,-
2,22,3,21.2,61.4,0,0,39.4,3,14,70,38,4,6,15.2,21.2,0,0,0,21.2,21.2,-,-,-,36.4,-,-,-
2,23,5,-6,34.2,0,-66,75.2,0,0,0,55,4,20,22,42,0,-16,-48,-6,42,-,-,-,9.2,-,-,-
2,24,2,23.2,67.2,0,0,46.2,4,9,45,33,4,11,13.2,24.2,1,0,0,23.2,23.2,-,-,-,42.2,-,-,-
3,1,1,18.4,74,0,-6,55,0,18,90,41,4,2,16.4,18.4,0,0,0,18.4,18.4,-,-,-,49,-,-,-
3,2,6,25,89.2,0,0,74.2,10,9,45,35,4,11,14,25,0,0,0,25,25,-,-,-,64.2,-,-,-
3,3,1,28.4,106,0,-9,90,0,8,40,41,4,12,16.4,28.4,0,0,0,28.4,28.4,-,-,-,81,-,-,-
3,4,5,11.8,77.4,0,-9,70.4,9,10,50,37,4,10,14.8,24.8,4,-3,-9,11.8,20.8,-,-,-,52.4,-,-,-
3,5,4,21.6,105.4,0,-12,92.4,0,4,20,29,4,16,11.6,27.6,0,-2,-6,21.6,27.6,-,-,-,80.4,-,-,-
3,6,5,6.8,89.6,0,-27,91.6,0,4,20,37,4,16,14.8,30.8,0,-8,-24,6.8,30.8,-,-,-,64.6,-,-,-
3,7,3,-0.2,32,0,-99,106,0,0,0,47,4,20,18.8,38.8,0,-13,-39,-0.2,38.8,-,-,-,7,-,-,-
3,8,2,25.2,88.6,0,0,63.6,0,20,100,63,4,0,25.2,25.2,0,0,0,25.2,25.2,-,-,-,63.6,-,-,-
3,9,3,8.8,55.4,0,0,62.4,32,20,100,47,4,0,18.8,18.8,10,0,0,8.8,8.8,-,-,-,30.4,-,-,-
3,10,2,32.2,85,0,-12,83,11,13,65,63,4,7,25.2,32.2,0,0,0,32.2,32.2,-,-,-,60,-,-,-
3,11,5,7.8,69.4,0,-42,94.4,8,3,15,37,4,17,14.8,31.8,3,-7,-21,7.8,28.8,-,-,-,44.4,-,-,-
3,12,6,22,93.6,0,-6,74.6,0,6,30,35,4,14,14,28,0,-2,-6,22,28,-,-,-,68.6,-,-,-
3,13,3,20.8,83.6,0,0,62.6,4,15,75,47,4,5,18.8,23.8,3,0,0,20.8,20.8,-,-,-,58.6,-,-,-
3,14,5,-0.2,48.2,0,-9,60.2,28,20,100,37,4,0,14.8,14.8,12,-1,-3,-0.2,2.8,-,-,-,23.2,-,-,-
3,15,1,24.4,97.8,0,0,75.8,3,9,45,41,4,11,16.4,27.4,3,0,0,24.4,24.4,-,-,-,72.8,-,-,-
3,16,1,21.4,91,0,-27,93,0,6,30,41,4,14,16.4,30.4,0,-3,-9,21.4,30.4,-,-,-,66,-,-,-
3,17,2,30.2,110,0,0,87,2,15,75,63,4,5,25.2,30.2,0,0,0,30.2,30.2,-,-,-,85,-,-,-
3,18,4,7.6,83.6,0,-3,68.6,7,18,90,29,4,2,11.6,13.6,6,0,0,7.6,7.6,-,-,-,58.6,-,-,-
3,19,4,20.6,69.4,0,-42,87.4,1,7,35,29,4,13,11.6,24.6,1,-1,-3,20.6,23.6,-,-,-,44.4,-,-,-
3,20,6,21,94.4,0,-6,78.4,3,12,60,35,4,8,14,22,1,0,0,21,21,-,-,-,69.4,-,-,-
3,21,2,30.2,104,0,0,82,3,15,75,63,4,5,25.2,30.2,0,0,0,30.2,30.2,-,-,-,79,-,-,-
3,22,3,26.8,88.2,0,0,66.2,3,12,60,47,4,8,18.8,26.8,0,0,0,26.8,26.8,-,-,-,63.2,-,-,-
3,23,4,19.6,53.8,0,-78,106.8,0,0,0,29,4,20,11.6,31.6,0,-4,-12,19.6,31.6,-,-,-,28.8,-,-,-
3,24,6,25,92.2,0,0,72.2,5,8,40,35,4,12,14,26,1,0,0,25,25,-,-,-,67.2,-,-,-
4,1,1,26.2,100.2,0,-6,81.2,0,15,75,53,4,5,21.2,26.2,0,0,0,26.2,26.2,-,-,-,75.2,-,-,-
4,2,5,14.6,103.8,0,-3,98.8,17,9,45,34,4,11,13.6,24.6,7,-1,-3,14.6,17.6,-,-,-,78.8,-,-,-
4,3,5,13.6,119.6,0,-9,113.6,10,10,50,34,4,10,13.6,23.6,10,0,0,13.6,13.6,-,-,-,94.6,-,-,-
4,4,1,21.2,98.6,0,-9,91.6,9,20,100,53,4,0,21.2,21.2,0,0,0,21.2,21.2,-,-,-,73.6,-,-,-
4,5,4,23.6,129,0,-18,122,0,2,10,29,4,18,11.6,29.6,0,-2,-6,23.6,29.6,-,-,-,104,-,-,-
4,6,6,27,116.6,0,-30,121.6,0,4,20,35,4,16,14,30,0,-1,-3,27,30,-,-,-,91.6,-,-,-
4,7,4,16.6,48.6,0,-114,137.6,0,0,0,29,4,20,11.6,31.6,0,-5,-15,16.6,31.6,-,-,-,23.6,-,-,-
4,8,6,11,99.6,0,-3,77.6,0,20,100,35,4,0,14,14,0,-1,-3,11,14,-,-,-,74.6,-,-,-
4,9,2,23.6,79,0,0,86,32,10,50,34,4,10,13.6,23.6,0,0,0,23.6,23.6,-,-,-,54,-,-,-
4,10,3,25.2,110.2,0,-18,114.2,11,14,70,63,4,6,25.2,31.2,0,-2,-6,25.2,31.2,-,-,-,85.2,-,-,-
4,11,6,27,96.4,0,-42,124.4,11,4,20,35,4,16,14,30,3,0,0,27,27,-,-,-,71.4,-,-,-
4,12,2,26.6,120.2,0,-6,101.2,0,7,35,34,4,13,13.6,26.6,0,0,0,26.6,26.6,-,-,-,95.2,-,-,-
4,13,3,28.2,111.8,0,0,90.8,4,17,85,63,4,3,25.2,28.2,0,0,0,28.2,28.2,-,-,-,86.8,-,-,-
4,14,3,26.2,74.4,0,-9,88.4,30,17,85,63,4,3,25.2,28.2,2,0,0,26.2,26.2,-,-,-,49.4,-,-,-
4,15,1,31.2,129,0,0,107,3,10,50,53,4,10,21.2,31.2,0,0,0,31.2,31.2,-,-,-,104,-,-,-
4,16,6,24,115,0,-30,120,0,7,35,35,4,13,14,27,0,-1,-3,24,27,-,-,-,90,-,-,-
4,17,5,15.6,125.6,0,0,105.6,5,15,75,34,4,5,13.6,18.6,3,0,0,15.6,15.6,-,-,-,100.6,-,-,-
4,18,4,11.6,95.2,0,-3,85.2,12,15,75,29,4,5,11.6,16.6,5,0,0,11.6,11.6,-,-,-,70.2,-,-,-
4,19,2,28.6,98,0,-42,116,1,5,25,34,4,15,13.6,28.6,0,0,0,28.6,28.6,-,-,-,73,-,-,-
4,20,4,17.6,112,0,-6,98,5,12,60,29,4,8,11.6,19.6,2,0,0,17.6,17.6,-,-,-,87,-,-,-
4,21,3,26.2,130.2,0,-3,112.2,4,15,75,63,4,5,25.2,30.2,1,-1,-3,26.2,29.2,-,-,-,105.2,-,-,-
4,22,2,21.6,109.8,0,0,87.8,3,12,60,34,4,8,13.6,21.6,0,0,0,21.6,21.6,-,-,-,84.8,-,-,-
4,23,5,-23.4,30.4,0,-135,140.4,0,0,0,34,4,20,13.6,33.6,0,-19,-57,-23.4,33.6,-,-,-,5.4,-,-,-
4,24,1,33.2,125.4,0,0,105.4,5,8,40,53,4,12,21.2,33.2,0,0,0,33.2,33.2,-,-,-,100.4,-,-,-
5,1,3,26.6,126.8,0,-6,107.8,0,15,75,54,4,5,21.6,26.6,0,0,0,26.6,26.6,-,-,-,101.8,-,-,-
5,2,1,23.2,127,0,-15,134,17,8,40,58,4,12,23.2,35.2,0,-4,-12,23.2,35.2,-,-,-,102,-,-,-
5,3,4,16.6,136.2,0,-24,145.2,10,10,50,54,4,10,21.6,31.6,0,-5,-15,16.6,31.6,-,-,-,111.2,-,-,-
5,4,3,25.6,124.2,0,-15,123.2,9,10,50,54,4,10,21.6,31.6,0,-2,-6,25.6,31.6,-,-,-,99.2,-,-,-
5,5,6,22.8,151.8,0,-24,150.8,0,2,10,27,4,18,10.8,28.8,0,-2,-6,22.8,28.8,-,-,-,126.8,-,-,-
5,6,6,23.8,140.4,0,-33,148.4,0,4,20,27,4,16,10.8,26.8,0,-1,-3,23.8,26.8,-,-,-,115.4,-,-,-
5,7,2,6.8,55.4,0,-138,168.4,0,0,0,27,4,20,10.8,30.8,0,-8,-24,6.8,30.8,-,-,-,30.4,-,-,-
5,8,1,23.2,122.8,0,-3,100.8,0,20,100,58,4,0,23.2,23.2,0,0,0,23.2,23.2,-,-,-,97.8,-,-,-
5,9,1,16.2,95.2,0,0,109.2,39,20,100,58,4,0,23.2,23.2,7,0,0,16.2,16.2,-,-,-,70.2,-,-,-
5,10,4,23.6,133.8,0,-18,140.8,14,15,75,54,4,5,21.6,26.6,3,0,0,23.6,23.6,-,-,-,108.8,-,-,-
5,11,5,20.2,116.6,0,-45,150.6,14,5,25,28,4,15,11.2,26.2,3,-1,-3,20.2,23.2,-,-,-,91.6,-,-,-
5,12,5,18.2,138.4,0,-9,124.4,2,8,40,28,4,12,11.2,23.2,2,-1,-3,18.2,21.2,-,-,-,113.4,-,-,-
5,13,4,21.6,133.4,0,0,115.4,7,17,85,54,4,3,21.6,24.6,3,0,0,21.6,21.6,-,-,-,108.4,-,-,-
5,14,2,-3.2,71.2,0,-9,101.2,46,18,90,27,4,2,10.8,12.8,16,0,0,-3.2,-3.2,-,-,-,46.2,-,-,-
5,15,1,24.2,153.2,0,-9,140.2,3,10,50,58,4,10,23.2,33.2,0,-3,-9,24.2,33.2,-,-,-,128.2,-,-,-
5,16,5,16.2,131.2,0,-45,151.2,0,0,0,28,4,20,11.2,31.2,0,-5,-15,16.2,31.2,-,-,-,106.2,-,-,-
5,17,6,9.8,135.4,0,-3,121.4,8,15,75,27,4,5,10.8,15.8,3,-1,-3,9.8,12.8,-,-,-,110.4,-,-,-
5,18,5,6.2,101.4,0,-9,101.4,16,15,75,28,4,5,11.2,16.2,4,-2,-6,6.2,12.2,-,-,-,76.4,-,-,-
5,19,6,23.8,121.8,0,-42,140.8,2,6,30,27,4,14,10.8,24.8,1,0,0,23.8,23.8,-,-,-,96.8,-,-,-
5,20,3,25.6,137.6,0,-9,127.6,6,12,60,54,4,8,21.6,29.6,1,-1,-3,25.6,28.6,-,-,-,112.6,-,-,-
5,21,3,22.6,152.8,0,-3,136.8,6,17,85,54,4,3,21.6,24.6,2,0,0,22.6,22.6,-,-,-,127.8,-,-,-
5,22,4,26.6,136.4,0,-3,117.4,3,12,60,54,4,8,21.6,29.6,0,-1,-3,26.6,29.6,-,-,-,111.4,-,-,-
5,23,2,6.8,37.2,0,-159,171.2,0,0,0,27,4,20,10.8,30.8,0,-8,-24,6.8,30.8,-,-,-,12.2,-,-,-
5,24,2,5.8,131.2,0,-12,127.2,9,9,45,27,4,11,10.8,21.8,4,-4,-12,5.8,17.8,-,-,-,106.2,-,-,-
6,1,2,27.8,154.6,0,-6,135.6,0,15,75,57,4,5,22.8,27.8,0,0,0,27.8,27.8,-,-,-,129.6,-,-,-
6,2,4,29.4,156.4,0,-18,166.4,17,10,50,56,4,10,22.4,32.4,0,-1,-3,29.4,32.4,-,-,-,131.4,-,-,-
6,3,1,17.4,153.6,0,-27,169.6,14,10,50,36,4,10,14.4,24.4,4,-1,-3,17.4,20.4,-,-,-,128.6,-,-,-
6,4,3,16.6,140.8,0,-15,141.8,11,15,75,34,4,5,13.6,18.6,2,0,0,16.6,16.6,-,-,-,115.8,-,-,-
6,5,5,28.2,180,0,-24,179,0,3,15,28,4,17,11.2,28.2,0,0,0,28.2,28.2,-,-,-,155,-,-,-
6,6,3,26.6,167,0,-36,178,0,4,20,34,4,16,13.6,29.6,0,-1,-3,26.6,29.6,-,-,-,142,-,-,-
6,7,3,21.6,77,0,-150,202,0,0,0,34,4,20,13.6,33.6,0,-4,-12,21.6,33.6,-,-,-,52,-,-,-
6,8,5,11.2,134,0,-3,112,0,20,100,28,4,0,11.2,11.2,0,0,0,11.2,11.2,-,-,-,109,-,-,-
6,9,6,16.4,111.6,0,0,133.6,47,20,100,61,4,0,24.4,24.4,8,0,0,16.4,16.4,-,-,-,86.6,-,-,-
6,10,1,10.4,144.2,0,-21,161.2,21,14,70,36,4,6,14.4,20.4,7,-1,-3,10.4,13.4,-,-,-,119.2,-,-,-
6,11,1,5.4,122,0,-66,180,17,5,25,36,4,15,14.4,29.4,3,-7,-21,5.4,26.4,-,-,-,97,-,-,-
6,12,1,12.4,150.8,0,-24,151.8,2,7,35,36,4,13,14.4,27.4,0,-5,-15,12.4,27.4,-,-,-,125.8,-,-,-
6,13,2,24.8,158.2,0,0,141.2,8,17,85,57,4,3,22.8,25.8,1,0,0,24.8,24.8,-,-,-,133.2,-,-,-
6,14,6,18.4,89.6,0,-15,130.6,51,15,75,61,4,5,24.4,29.4,5,-2,-6,18.4,24.4,-,-,-,64.6,-,-,-
6,15,2,29.8,183,0,-12,173,3,10,50,57,4,10,22.8,32.8,0,-1,-3,29.8,32.8,-,-,-,158,-,-,-
6,16,4,22.4,153.6,0,-45,173.6,0,20,100,56,4,0,22.4,22.4,0,0,0,22.4,22.4,-,-,-,128.6,-,-,-
6,17,3,15.6,151,0,-3,140,11,15,75,34,4,5,13.6,18.6,3,0,0,15.6,15.6,-,-,-,126,-,-,-
6,18,2,27.8,129.2,0,-9,129.2,16,15,75,57,4,5,22.8,27.8,0,0,0,27.8,27.8,-,-,-,104.2,-,-,-
6,19,5,26.2,148,0,-42,167,2,5,25,28,4,15,11.2,26.2,0,0,0,26.2,26.2,-,-,-,123,-,-,-
6,20,4,29.4,167,0,-9,158,7,12,60,56,4,8,22.4,30.4,1,0,0,29.4,29.4,-,-,-,142,-,-,-
6,21,6,22.4,175.2,0,-6,164.2,8,17,85,61,4,3,24.4,27.4,2,-1,-3,22.4,25.4,-,-,-,150.2,-,-,-
6,22,4,28.4,164.8,0,-3,145.8,3,14,70,56,4,6,22.4,28.4,0,0,0,28.4,28.4,-,-,-,139.8,-,-,-
6,23,5,31.2,68.4,0,-159,202.4,0,0,0,28,4,20,11.2,31.2,0,0,0,31.2,31.2,-,-,-,43.4,-,-,-
6,24,6,-0.6,130.6,0,-48,162.6,9,9,45,61,4,11,24.4,35.4,0,-12,-36,-0.6,35.4,-,-,-,105.6,-,-,-
7,1,4,28,182.6,0,-6,163.6,0,16,80,60,4,4,24,28,0,0,0,28,28,-,-,-,157.6,-,-,-
7,2,5,9.2,165.6,0,-33,193.6,20,10,50,43,4,10,17.2,27.2,3,-5,-15,9.2,24.2,-,-,-,140.6,-,-,-
7,3,5,8.2,161.8,0,-42,196.8,18,10,50,43,4,10,17.2,27.2,4,-5,-15,8.2,23.2,-,-,-,136.8,-,-,-
7,4,3,21,161.8,0,-18,169.8,15,10,50,45,4,10,18,28,4,-1,-3,21,24,-,-,-,136.8,-,-,-
7,5,5,-7.8,172.2,0,-66,213.2,0,3,15,43,4,17,17.2,34.2,0,-14,-42,-7.8,34.2,-,-,-,147.2,-,-,-
7,6,2,31.6,198.6,0,-36,209.6,0,4,20,39,4,16,15.6,31.6,0,0,0,31.6,31.6,-,-,-,173.6,-,-,-
7,7,6,14.4,91.4,0,-174,240.4,0,0,0,46,4,20,18.4,38.4,0,-8,-24,14.4,38.4,-,-,-,66.4,-,-,-
7,8,2,15.6,149.6,0,-3,127.6,0,20,100,39,4,0,15.6,15.6,0,0,0,15.6,15.6,-,-,-,124.6,-,-,-
7,9,5,0.2,111.8,0,0,150.8,64,20,100,43,4,0,17.2,17.2,17,0,0,0.2,0.2,-,-,-,86.8,-,-,-
7,10,4,28,172.2,0,-21,191.2,23,14,70,60,4,6,24,30,2,0,0,28,28,-,-,-,147.2,-,-,-
7,11,1,19.2,141.2,0,-69,205.2,20,6,30,28,4,14,11.2,25.2,3,-1,-3,19.2,22.2,-,-,-,116.2,-,-,-
7,12,1,19.2,170,0,-27,175,3,8,40,28,4,12,11.2,23.2,1,-1,-3,19.2,22.2,-,-,-,145,-,-,-
7,13,3,16,174.2,0,0,160.2,11,19,95,45,4,1,18,19,3,0,0,16,16,-,-,-,149.2,-,-,-
7,14,6,16.4,106,0,-15,153,57,16,80,46,4,4,18.4,22.4,6,0,0,16.4,16.4,-,-,-,81,-,-,-
7,15,6,23.4,206.4,0,-12,196.4,3,15,75,46,4,5,18.4,23.4,0,0,0,23.4,23.4,-,-,-,181.4,-,-,-
7,16,3,7,160.6,0,-75,210.6,0,1,5,45,4,19,18,37,0,-10,-30,7,37,-,-,-,135.6,-,-,-
7,17,6,21.4,172.4,0,-3,163.4,13,15,75,46,4,5,18.4,23.4,2,0,0,21.4,21.4,-,-,-,147.4,-,-,-
7,18,4,27,156.2,0,-9,156.2,16,17,85,60,4,3,24,27,0,0,0,27,27,-,-,-,131.2,-,-,-
7,19,1,16.2,164.2,0,-54,195.2,2,3,15,28,4,17,11.2,28.2,0,-4,-12,16.2,28.2,-,-,-,139.2,-,-,-
7,20,4,25,192,0,-15,189,7,13,65,60,4,7,24,31,0,-2,-6,25,31,-,-,-,167,-,-,-
7,21,3,19,194.2,0,-6,187.2,12,15,75,45,4,5,18,23,4,0,0,19,19,-,-,-,169.2,-,-,-
7,22,2,20.6,185.4,0,-3,166.4,3,15,75,39,4,5,15.6,20.6,0,0,0,20.6,20.6,-,-,-,160.4,-,-,-
7,23,2,35.6,104,0,-159,238,0,0,0,39,4,20,15.6,35.6,0,0,0,35.6,35.6,-,-,-,79,-,-,-
7,24,1,14.2,144.8,0,-51,182.8,12,11,55,28,4,9,11.2,20.2,3,-1,-3,14.2,17.2,-,-,-,119.8,-,-,-
8,1,1,20.6,203.2,0,-9,187.2,0,16,80,49,4,4,19.6,23.6,0,-1,-3,20.6,23.6,-,-,-,178.2,-,-,-
8,2,5,24.6,190.2,0,-33,221.2,23,10,50,44,4,10,17.6,27.6,3,0,0,24.6,24.6,-,-,-,165.2,-,-,-
8,3,1,18.6,180.4,0,-51,226.4,20,10,50,49,4,10,19.6,29.6,2,-3,-9,18.6,27.6,-,-,-,155.4,-,-,-
8,4,6,20,181.8,0,-18,195.8,21,10,50,40,4,10,16,26,6,0,0,20,20,-,-,-,156.8,-,-,-
8,5,4,10.4,182.6,0,-84,241.6,0,4,20,31,4,16,12.4,28.4,0,-6,-18,10.4,28.4,-,-,-,157.6,-,-,-
8,6,5,20.6,219.2,0,-48,242.2,0,5,25,44,4,15,17.6,32.6,0,-4,-12,20.6,32.6,-,-,-,194.2,-,-,-
8,7,6,6,97.4,0,-204,276.4,0,0,0,40,4,20,16,36,0,-10,-30,6,36,-,-,-,72.4,-,-,-
8,8,3,25,174.6,0,-6,155.6,0,18,90,65,4,2,26,28,0,-1,-3,25,28,-,-,-,149.6,-,-,-
8,9,3,20,131.8,0,0,176.8,70,20,100,65,4,0,26,26,6,0,0,20,20,-,-,-,106.8,-,-,-
8,10,4,3.4,175.6,0,-21,208.6,37,15,75,31,4,5,12.4,17.4,14,0,0,3.4,3.4,-,-,-,150.6,-,-,-
8,11,1,17.6,158.8,0,-81,238.8,24,6,30,49,4,14,19.6,33.6,4,-4,-12,17.6,29.6,-,-,-,133.8,-,-,-
8,12,4,16.4,186.4,0,-36,200.4,3,7,35,31,4,13,12.4,25.4,0,-3,-9,16.4,25.4,-,-,-,161.4,-,-,-
8,13,1,16.6,190.8,0,-3,182.8,14,17,85,49,4,3,19.6,22.6,3,-1,-3,16.6,19.6,-,-,-,165.8,-,-,-
8,14,6,16,122,0,-15,173,61,16,80,40,4,4,16,20,4,0,0,16,16,-,-,-,97,-,-,-
8,15,6,22,228.4,0,-12,218.4,3,14,70,40,4,6,16,22,0,0,0,22,22,-,-,-,203.4,-,-,-
8,16,2,19.6,180.2,0,-87,242.2,0,2,10,34,4,18,13.6,31.6,0,-4,-12,19.6,31.6,-,-,-,155.2,-,-,-
8,17,5,21.6,194,0,-3,186,14,15,75,44,4,5,17.6,22.6,1,0,0,21.6,21.6,-,-,-,169,-,-,-
8,18,2,9.6,165.8,0,-9,171.8,22,18,90,34,4,2,13.6,15.6,6,0,0,9.6,9.6,-,-,-,140.8,-,-,-
8,19,4,12.4,176.6,0,-69,222.6,2,5,25,31,4,15,12.4,27.4,0,-5,-15,12.4,27.4,-,-,-,151.6,-,-,-
8,20,2,15.6,207.6,0,-15,208.6,11,14,70,34,4,6,13.6,19.6,4,0,0,15.6,15.6,-,-,-,182.6,-,-,-
8,21,3,25,219.2,0,-12,218.2,12,15,75,65,4,5,26,31,0,-2,-6,25,31,-,-,-,194.2,-,-,-
8,22,5,23.6,209,0,-3,190,3,14,70,44,4,6,17.6,23.6,0,0,0,23.6,23.6,-,-,-,184,-,-,-
8,23,2,15.6,119.6,0,-177,271.6,0,0,0,34,4,20,13.6,33.6,0,-6,-18,15.6,33.6,-,-,-,94.6,-,-,-
8,24,3,25,169.8,0,-60,216.8,12,12,60,65,4,8,26,34,0,-3,-9,25,34,-,-,-,144.8,-,-,-
9,1,6,23,226.2,0,-9,210.2,0,15,75,45,4,5,18,23,0,0,0,23,23,-,-,-,201.2,-,-,-
9,2,3,14.6,204.8,0,-33,245.8,33,11,55,39,4,9,15.6,24.6,10,0,0,14.6,14.6,-,-,-,179.8,-,-,-
9,3,4,13.8,194.2,0,-57,253.2,27,10,50,42,4,10,16.8,26.8,7,-2,-6,13.8,19.8,-,-,-,169.2,-,-,-
9,4,1,23.6,205.4,0,-18,221.4,23,12,60,44,4,8,17.6,25.6,2,0,0,23.6,23.6,-,-,-,180.4,-,-,-
9,5,1,23.6,206.2,0,-96,277.2,0,2,10,44,4,18,17.6,35.6,0,-4,-12,23.6,35.6,-,-,-,181.2,-,-,-
9,6,2,12.6,231.8,0,-72,278.8,0,5,25,54,4,15,21.6,36.6,0,-8,-24,12.6,36.6,-,-,-,206.8,-,-,-
9,7,5,24.2,121.6,0,-213,309.6,0,0,0,33,4,20,13.2,33.2,0,-3,-9,24.2,33.2,-,-,-,96.6,-,-,-
9,8,5,10.2,184.8,0,-9,168.8,0,20,100,33,4,0,13.2,13.2,0,-1,-3,10.2,13.2,-,-,-,159.8,-,-,-
9,9,2,12.6,144.4,0,0,198.4,79,20,100,54,4,0,21.6,21.6,9,0,0,12.6,12.6,-,-,-,119.4,-,-,-
9,10,6,14,189.6,0,-21,231.6,46,15,75,45,4,5,18,23,9,0,0,14,14,-,-,-,164.6,-,-,-
9,11,5,23.2,182,0,-81,265,27,7,35,33,4,13,13.2,26.2,3,0,0,23.2,23.2,-,-,-,157,-,-,-
9,12,5,18.2,204.6,0,-42,227.6,6,6,30,33,4,14,13.2,27.2,3,-2,-6,18.2,24.2,-,-,-,179.6,-,-,-
9,13,4,15.8,206.6,0,-3,202.6,18,17,85,42,4,3,16.8,19.8,4,0,0,15.8,15.8,-,-,-,181.6,-,-,-
9,14,4,15.8,137.8,0,-15,194.8,67,15,75,42,4,5,16.8,21.8,6,0,0,15.8,15.8,-,-,-,112.8,-,-,-
9,15,3,-0.4,228,0,-48,254,3,0,0,39,4,20,15.6,35.6,0,-12,-36,-0.4,35.6,-,-,-,203,-,-,-
9,16,1,22.6,202.8,0,-87,264.8,0,15,75,44,4,5,17.6,22.6,0,0,0,22.6,22.6,-,-,-,177.8,-,-,-
9,17,3,18.6,212.6,0,-3,206.6,16,15,75,39,4,5,15.6,20.6,2,0,0,18.6,18.6,-,-,-,187.6,-,-,-
9,18,2,19.6,185.4,0,-15,198.4,23,15,75,54,4,5,21.6,26.6,1,-2,-6,19.6,25.6,-,-,-,160.4,-,-,-
9,19,6,5,181.6,0,-99,257.6,2,3,15,45,4,17,18,35,0,-10,-30,5,35,-,-,-,156.6,-,-,-
9,20,2,19.6,227.2,0,-21,236.2,13,14,70,54,4,6,21.6,27.6,2,-2,-6,19.6,25.6,-,-,-,202.2,-,-,-
9,21,1,20.6,239.8,0,-12,240.8,14,15,75,44,4,5,17.6,22.6,2,0,0,20.6,20.6,-,-,-,214.8,-,-,-
9,22,3,22.6,231.6,0,-3,212.6,3,13,65,39,4,7,15.6,22.6,0,0,0,22.6,22.6,-,-,-,206.6,-,-,-
9,23,4,-8.2,111.4,0,-222,308.4,0,0,0,42,4,20,16.8,36.8,0,-15,-45,-8.2,36.8,-,-,-,86.4,-,-,-
9,24,6,17,186.8,0,-66,242.8,15,12,60,45,4,8,18,26,3,-2,-6,17,23,-,-,-,161.8,-,-,-
10,1,3,19.4,245.6,0,-9,229.6,0,15,75,36,4,5,14.4,19.4,0,0,0,19.4,19.4,0,0,0,220.6,-,-,-
10,2,1,19,223.8,0,-39,273.8,36,10,50,45,4,10,18,28,3,-2,-6,19,25,10,10,15,198.8,-,-,-
10,3,2,10,204.2,0,-57,273.2,37,10,50,25,4,10,10,20,10,0,0,10,10,40,20,10,179.2,-,-,-
10,4,2,9,214.4,0,-39,251.4,23,0,0,25,4,20,10,30,0,-7,-21,9,30,5,5,5,189.4,-,-,-
10,5,1,13,219.2,0,-117,311.2,0,4,20,45,4,16,18,34,0,-7,-21,13,34,20,18,30,194.2,-,-,-
10,6,3,23.4,255.2,0,-78,308.2,0,5,25,36,4,15,14.4,29.4,0,-2,-6,23.4,29.4,8,0,4,230.2,-,-,-
10,7,4,15.2,136.8,0,-225,336.8,0,0,0,18,4,20,7.2,27.2,0,-4,-12,15.2,27.2,15,12,15,111.8,-,-,-
10,8,1,21,205.8,0,-9,189.8,0,17,85,45,4,3,18,21,0,0,0,21,21,0,0,0,180.8,-,-,-
10,9,5,4.6,149,0,-3,218,91,20,100,49,4,0,19.6,19.6,12,-1,-3,4.6,7.6,0,0,0,124,-,-,-
10,10,6,26,215.6,0,-21,259.6,48,14,70,55,4,6,22,28,2,0,0,26,26,30,10,40,190.6,-,-,-
10,11,5,9.6,191.6,0,-102,298.6,30,6,30,49,4,14,19.6,33.6,3,-7,-21,9.6,30.6,33,25,50,166.6,-,-,-
10,12,5,10.6,215.2,0,-63,259.2,6,8,40,49,4,12,19.6,31.6,0,-7,-21,10.6,31.6,2,0,2,190.2,-,-,-
10,13,2,11,217.6,0,-3,217.6,22,15,75,25,4,5,10,15,4,0,0,11,11,0,0,0,192.6,-,-,-
10,14,1,18,155.8,0,-15,218.8,73,14,70,45,4,6,18,24,6,0,0,18,18,10,5,20,130.8,-,-,-
10,15,2,9,237,0,-69,284,3,0,0,25,4,20,10,30,0,-7,-21,9,30,30,25,40,212,-,-,-
10,16,4,13.2,216,0,-99,290,0,2,10,18,4,18,7.2,25.2,0,-4,-12,13.2,25.2,3,3,3,191,-,-,-
10,17,6,27,239.6,0,-3,233.6,16,15,75,55,4,5,22,27,0,0,0,27,27,1,0,2,214.6,-,-,-
10,18,3,18.4,203.8,0,-15,220.8,27,12,60,36,4,8,14.4,22.4,4,0,0,18.4,18.4,2,1,2,178.8,-,-,-
10,19,3,24.4,206,0,-105,288,2,4,20,36,4,16,14.4,30.4,0,-2,-6,24.4,30.4,6,2,3,181,-,-,-
10,20,6,27,254.2,0,-21,264.2,14,14,70,55,4,6,22,28,1,0,0,27,27,10,7,13,229.2,-,-,-
10,21,5,16.6,256.4,0,-18,265.4,16,15,75,49,4,5,19.6,24.6,2,-2,-6,16.6,22.6,6,3,6,231.4,-,-,-
10,22,4,-0.8,230.8,0,-3,223.8,15,16,80,18,4,4,7.2,11.2,12,0,0,-0.8,-0.8,5,4,4,205.8,-,-,-
10,23,4,15.2,126.6,0,-234,335.6,0,0,0,18,4,20,7.2,27.2,0,-4,-12,15.2,27.2,9,6,9,101.6,-,-,-
10,24,6,21,207.8,0,-75,272.8,15,12,60,55,4,8,22,30,0,-3,-9,21,30,5,4,6,182.8,-,-,-
11,1,6,23,268.6,0,-9,252.6,0,15,75,45,4,5,18,23,0,0,0,23,23,-,-,-,243.6,-,-,-
11,2,4,11.6,235.4,0,-48,299.4,41,12,60,44,4,8,17.6,25.6,5,-3,-9,11.6,20.6,-,-,-,210.4,-,-,-
11,3,6,26,230.2,0,-57,299.2,37,12,60,45,4,8,18,26,0,0,0,26,26,-,-,-,205.2,-,-,-
11,4,5,19,233.4,0,-48,279.4,23,10,50,45,4,10,18,28,0,-3,-9,19,28,-,-,-,208.4,-,-,-
11,5,3,23.4,242.6,0,-117,337.6,3,10,50,41,4,10,16.4,26.4,3,0,0,23.4,23.4,-,-,-,217.6,-,-,-
11,6,5,25,280.2,0,-84,339.2,0,7,35,45,4,13,18,31,0,-2,-6,25,31,-,-,-,255.2,-,-,-
11,7,3,19.4,156.2,0,-237,368.2,0,5,25,41,4,15,16.4,31.4,0,-4,-12,19.4,31.4,-,-,-,131.2,-,-,-
11,8,6,21,226.8,0,-9,210.8,0,17,85,45,4,3,18,21,0,0,0,21,21,-,-,-,201.8,-,-,-
11,9,4,2.6,151.6,0,-3,235.6,106,20,100,44,4,0,17.6,17.6,15,0,0,2.6,2.6,-,-,-,126.6,-,-,-
11,10,1,13.8,229.4,0,-21,283.4,58,15,75,47,4,5,18.8,23.8,10,0,0,13.8,13.8,-,-,-,204.4,-,-,-
11,11,5,22,213.6,0,-108,328.6,32,8,40,45,4,12,18,30,2,-2,-6,22,28,-,-,-,188.6,-,-,-
11,12,4,14.6,229.8,0,-78,288.8,6,8,40,44,4,12,17.6,29.6,0,-5,-15,14.6,29.6,-,-,-,204.8,-,-,-
11,13,2,26,243.6,0,-3,244.6,23,17,85,60,4,3,24,27,1,0,0,26,26,-,-,-,218.6,-,-,-
11,14,5,9,164.8,0,-18,236.8,79,20,100,45,4,0,18,18,6,-1,-3,9,12,-,-,-,139.8,-,-,-
11,15,1,16.8,253.8,0,-81,312.8,3,10,50,47,4,10,18.8,28.8,0,-4,-12,16.8,28.8,-,-,-,228.8,-,-,-
11,16,6,37,253,0,-99,327,0,1,5,45,4,19,18,37,0,0,0,37,37,-,-,-,228,-,-,-
11,17,2,29,268.6,0,-3,262.6,16,15,75,60,4,5,24,29,0,0,0,29,29,-,-,-,243.6,-,-,-
11,18,2,29,232.8,0,-15,249.8,27,15,75,60,4,5,24,29,0,0,0,29,29,-,-,-,207.8,-,-,-
11,19,4,-2.4,203.6,0,-141,321.6,2,4,20,44,4,16,17.6,33.6,0,-12,-36,-2.4,33.6,-,-,-,178.6,-,-,-
11,20,1,20.8,275,0,-27,291,14,12,60,47,4,8,18.8,26.8,0,-2,-6,20.8,26.8,-,-,-,250,-,-,-
11,21,3,21.4,277.8,0,-18,287.8,17,14,70,41,4,6,16.4,22.4,1,0,0,21.4,21.4,-,-,-,252.8,-,-,-
11,22,3,24.4,255.2,0,-3,248.2,15,12,60,41,4,8,16.4,24.4,0,0,0,24.4,24.4,-,-,-,230.2,-,-,-
11,23,1,16.8,143.4,0,-246,364.4,0,10,50,47,4,10,18.8,28.8,0,-4,-12,16.8,28.8,-,-,-,118.4,-,-,-
11,24,2,28,235.8,0,-78,303.8,15,13,65,60,4,7,24,31,0,-1,-3,28,31,-,-,-,210.8,-,-,-
12,1,3,29.8,298.4,0,-9,282.4,0,15,75,62,4,5,24.8,29.8,0,0,0,29.8,29.8,-,-,-,273.4,-,-,-
12,2,5,12,247.4,0,-66,329.4,41,10,50,50,4,10,20,30,0,-6,-18,12,30,-,-,-,222.4,-,-,-
12,3,6,30.2,260.4,0,-57,329.4,37,11,55,53,4,9,21.2,30.2,0,0,0,30.2,30.2,-,-,-,235.4,-,-,-
12,4,1,23.8,257.2,0,-48,303.2,23,15,75,47,4,5,18.8,23.8,0,0,0,23.8,23.8,-,-,-,232.2,-,-,-
12,5,4,21,263.6,0,-126,367.6,3,10,50,50,4,10,20,30,0,-3,-9,21,30,-,-,-,238.6,-,-,-
12,6,5,17,297.2,0,-96,368.2,0,11,55,50,4,9,20,29,0,-4,-12,17,29,-,-,-,272.2,-,-,-
12,7,4,21,177.2,0,-246,398.2,0,10,50,50,4,10,20,30,0,-3,-9,21,30,-,-,-,152.2,-,-,-
12,8,6,24.2,251,0,-9,235,0,17,85,53,4,3,21.2,24.2,0,0,0,24.2,24.2,-,-,-,226,-,-,-
12,9,4,11,162.6,0,-3,255.6,115,20,100,50,4,0,20,20,9,0,0,11,11,-,-,-,137.6,-,-,-
12,10,5,16,245.4,0,-21,308.4,67,15,75,50,4,5,20,25,9,0,0,16,16,-,-,-,220.4,-,-,-
12,11,2,19.4,233,0,-117,360,35,9,45,51,4,11,20.4,31.4,3,-3,-9,19.4,28.4,-,-,-,208,-,-,-
12,12,6,31.2,261,0,-78,320,6,10,50,53,4,10,21.2,31.2,0,0,0,31.2,31.2,-,-,-,236,-,-,-
12,13,2,16.4,260,0,-6,267,26,18,90,51,4,2,20.4,22.4,3,-1,-3,16.4,19.4,-,-,-,235,-,-,-
12,14,1,22.8,187.6,0,-18,263.6,83,12,60,47,4,8,18.8,26.8,4,0,0,22.8,22.8,-,-,-,162.6,-,-,-
12,15,4,21,274.8,0,-90,342.8,3,10,50,50,4,10,20,30,0,-3,-9,21,30,-,-,-,249.8,-,-,-
12,16,6,26.2,279.2,0,-99,353.2,0,15,75,53,4,5,21.2,26.2,0,0,0,26.2,26.2,-,-,-,254.2,-,-,-
12,17,1,21.8,290.4,0,-3,286.4,18,15,75,47,4,5,18.8,23.8,2,0,0,21.8,21.8,-,-,-,265.4,-,-,-
12,18,3,26.8,259.6,0,-15,276.6,27,18,90,62,4,2,24.8,26.8,0,0,0,26.8,26.8,-,-,-,234.6,-,-,-
12,19,1,15.8,219.4,0,-159,355.4,2,5,25,47,4,15,18.8,33.8,0,-6,-18,15.8,33.8,-,-,-,194.4,-,-,-
12,20,3,30.8,305.8,0,-27,321.8,14,14,70,62,4,6,24.8,30.8,0,0,0,30.8,30.8,-,-,-,280.8,-,-,-
12,21,5,25,302.8,0,-18,313.8,18,14,70,50,4,6,20,26,1,0,0,25,25,-,-,-,277.8,-,-,-
12,22,3,29.8,285,0,-3,278,15,15,75,62,4,5,24.8,29.8,0,0,0,29.8,29.8,-,-,-,260,-,-,-
12,23,2,21.4,164.8,0,-255,394.8,0,10,50,51,4,10,20.4,30.4,0,-3,-9,21.4,30.4,-,-,-,139.8,-,-,-
12,24,2,21.4,257.2,0,-81,330.2,17,14,70,51,4,6,20.4,26.4,2,-1,-3,21.4,24.4,-,-,-,232.2,-,-,-
13,1,5,28.2,326.6,0,-9,310.6,0,15,75,58,4,5,23.2,28.2,0,0,0,28.2,28.2,-,-,-,301.6,-,-,-
13,2,4,31,278.4,0,-66,360.4,41,11,55,55,4,9,22,31,0,0,0,31,31,-,-,-,253.4,-,-,-
13,3,6,16.4,276.8,0,-69,357.8,37,12,60,51,4,8,20.4,28.4,0,-4,-12,16.4,28.4,-,-,-,251.8,-,-,-
13,4,5,22.2,279.4,0,-57,334.4,23,12,60,58,4,8,23.2,31.2,0,-3,-9,22.2,31.2,-,-,-,254.4,-,-,-
13,5,3,16.6,280.2,0,-141,399.2,3,10,50,54,4,10,21.6,31.6,0,-5,-15,16.6,31.6,-,-,-,255.2,-,-,-
13,6,4,30,327.2,0,-96,398.2,0,12,60,55,4,8,22,30,0,0,0,30,30,-,-,-,302.2,-,-,-
13,7,1,24,201.2,0,-252,428.2,0,10,50,50,4,10,20,30,0,-2,-6,24,30,-,-,-,176.2,-,-,-
13,8,4,25,276,0,-9,260,0,17,85,55,4,3,22,25,0,0,0,25,25,-,-,-,251,-,-,-
13,9,3,11.6,174.2,0,-3,277.2,125,20,100,54,4,0,21.6,21.6,10,0,0,11.6,11.6,-,-,-,149.2,-,-,-
13,10,6,15.4,260.8,0,-24,333.8,74,15,75,51,4,5,20.4,25.4,7,-1,-3,15.4,18.4,-,-,-,235.8,-,-,-
13,11,6,12.4,245.4,0,-132,390.4,38,10,50,51,4,10,20.4,30.4,3,-5,-15,12.4,27.4,-,-,-,220.4,-,-,-
13,12,3,16.6,277.6,0,-93,351.6,6,10,50,54,4,10,21.6,31.6,0,-5,-15,16.6,31.6,-,-,-,252.6,-,-,-
13,13,5,24.2,284.2,0,-6,293.2,28,17,85,58,4,3,23.2,26.2,2,0,0,24.2,24.2,-,-,-,259.2,-,-,-
13,14,5,28.2,215.8,0,-18,292.8,84,14,70,58,4,6,23.2,29.2,1,0,0,28.2,28.2,-,-,-,190.8,-,-,-
13,15,1,24,298.8,0,-96,372.8,3,10,50,50,4,10,20,30,0,-2,-6,24,30,-,-,-,273.8,-,-,-
13,16,1,24,303.2,0,-105,383.2,0,10,50,50,4,10,20,30,0,-2,-6,24,30,-,-,-,278.2,-,-,-
13,17,4,27,317.4,0,-3,313.4,18,15,75,55,4,5,22,27,0,0,0,27,27,-,-,-,292.4,-,-,-
13,18,1,14,273.6,0,-15,296.6,33,20,100,50,4,0,20,20,6,0,0,14,14,-,-,-,248.6,-,-,-
13,19,2,23.4,242.8,0,-168,387.8,2,6,30,46,4,14,18.4,32.4,0,-3,-9,23.4,32.4,-,-,-,217.8,-,-,-
13,20,2,20.4,326.2,0,-27,345.2,17,15,75,46,4,5,18.4,23.4,3,0,0,20.4,20.4,-,-,-,301.2,-,-,-
13,21,6,22.4,325.2,0,-21,340.2,19,14,70,51,4,6,20.4,26.4,1,-1,-3,22.4,25.4,-,-,-,300.2,-,-,-
13,22,2,23.4,308.4,0,-3,301.4,15,15,75,46,4,5,18.4,23.4,0,0,0,23.4,23.4,-,-,-,283.4,-,-,-
13,23,2,28.4,193.2,0,-255,423.2,0,10,50,46,4,10,18.4,28.4,0,0,0,28.4,28.4,-,-,-,168.2,-,-,-
13,24,3,19.6,276.8,0,-87,357.8,19,14,70,54,4,6,21.6,27.6,2,-2,-6,19.6,25.6,-,-,-,251.8,-,-,-
14,1,6,23,349.6,0,-15,339.6,0,15,75,60,4,5,24,29,0,-2,-6,23,29,-,-,-,324.6,-,-,-
14,2,1,27,305.4,0,-69,390.4,41,12,60,55,4,8,22,30,0,-1,-3,27,30,-,-,-,280.4,-,-,-
14,3,4,24.4,301.2,0,-72,385.2,37,11,55,46,4,9,18.4,27.4,0,-1,-3,24.4,27.4,-,-,-,276.2,-,-,-
14,4,3,26,305.4,0,-57,360.4,23,20,100,65,4,0,26,26,0,0,0,26,26,-,-,-,280.4,-,-,-
14,5,2,20.8,301,0,-144,426,6,10,50,42,4,10,16.8,26.8,3,-1,-3,20.8,23.8,-,-,-,276,-,-,-
14,6,3,26,353.2,0,-102,430.2,0,14,70,65,4,6,26,32,0,-2,-6,26,32,-,-,-,328.2,-,-,-
14,7,6,19,220.2,0,-267,462.2,0,10,50,60,4,10,24,34,0,-5,-15,19,34,-,-,-,195.2,-,-,-
14,8,5,23.4,299.4,0,-12,286.4,0,16,80,56,4,4,22.4,26.4,0,-1,-3,23.4,26.4,-,-,-,274.4,-,-,-
14,9,6,16,190.2,0,-3,301.2,133,20,100,60,4,0,24,24,8,0,0,16,16,-,-,-,165.2,-,-,-
14,10,3,30,290.8,0,-24,364.8,75,15,75,65,4,5,26,31,1,0,0,30,30,-,-,-,265.8,-,-,-
14,11,5,25.4,270.8,0,-135,421.8,41,11,55,56,4,9,22.4,31.4,3,-1,-3,25.4,28.4,-,-,-,245.8,-,-,-
14,12,1,25,302.6,0,-99,382.6,6,11,55,55,4,9,22,31,0,-2,-6,25,31,-,-,-,277.6,-,-,-
14,13,1,22,306.2,0,-6,318.2,31,17,85,55,4,3,22,25,3,0,0,22,22,-,-,-,281.2,-,-,-
14,14,3,29,244.8,0,-18,322.8,85,16,80,65,4,4,26,30,1,0,0,29,29,-,-,-,219.8,-,-,-
14,15,2,17.8,316.6,0,-105,399.6,3,10,50,42,4,10,16.8,26.8,0,-3,-9,17.8,26.8,-,-,-,291.6,-,-,-
14,16,4,25.4,328.6,0,-108,411.6,0,10,50,46,4,10,18.4,28.4,0,-1,-3,25.4,28.4,-,-,-,303.6,-,-,-
14,17,6,22,339.4,0,-9,342.4,19,15,75,60,4,5,24,29,1,-2,-6,22,28,-,-,-,314.4,-,-,-
14,18,2,13.8,287.4,0,-15,316.4,39,17,85,42,4,3,16.8,19.8,6,0,0,13.8,13.8,-,-,-,262.4,-,-,-
14,19,2,16.8,259.6,0,-183,419.6,2,5,25,42,4,15,16.8,31.8,0,-5,-15,16.8,31.8,-,-,-,234.6,-,-,-
14,20,5,23.4,349.6,0,-30,372.6,18,15,75,56,4,5,22.4,27.4,1,-1,-3,23.4,26.4,-,-,-,324.6,-,-,-
14,21,5,25.4,350.6,0,-24,368.6,19,14,70,56,4,6,22.4,28.4,0,-1,-3,25.4,28.4,-,-,-,325.6,-,-,-
14,22,1,27,335.4,0,-3,328.4,15,15,75,55,4,5,22,27,0,0,0,27,27,-,-,-,310.4,-,-,-
14,23,4,25.4,218.6,0,-258,451.6,0,10,50,46,4,10,18.4,28.4,0,-1,-3,25.4,28.4,-,-,-,193.6,-,-,-
14,24,4,20.4,297.2,0,-87,381.2,22,15,75,46,4,5,18.4,23.4,3,0,0,20.4,20.4,-,-,-,272.2,-,-,-
15,1,6,21.8,371.4,0,-15,361.4,0,15,75,42,4,5,16.8,21.8,0,0,0,21.8,21.8,-,-,-,346.4,-,-,-
15,2,6,18.8,324.2,0,-69,415.2,47,12,60,42,4,8,16.8,24.8,6,0,0,18.8,18.8,-,-,-,299.2,-,-,-
15,3,6,25.8,327,0,-72,411,37,11,55,42,4,9,16.8,25.8,0,0,0,25.8,25.8,-,-,-,302,-,-,-
15,4,5,24.6,330,0,-57,385,23,15,75,49,4,5,19.6,24.6,0,0,0,24.6,24.6,-,-,-,305,-,-,-
15,5,4,10.8,311.8,0,-156,450.8,8,10,50,37,4,10,14.8,24.8,2,-4,-12,10.8,22.8,-,-,-,286.8,-,-,-
15,6,5,27.6,380.8,0,-102,457.8,0,12,60,49,4,8,19.6,27.6,0,0,0,27.6,27.6,-,-,-,355.8,-,-,-
15,7,1,28,248.2,0,-267,490.2,0,20,100,70,4,0,28,28,0,0,0,28,28,-,-,-,223.2,-,-,-
15,8,2,28,327.4,0,-12,314.4,0,16,80,60,4,4,24,28,0,0,0,28,28,-,-,-,302.4,-,-,-
15,9,3,9.2,199.4,0,-6,324.4,144,20,100,58,4,0,23.2,23.2,11,-1,-3,9.2,12.2,-,-,-,174.4,-,-,-
15,10,4,3.8,294.6,0,-24,384.6,91,15,75,37,4,5,14.8,19.8,16,0,0,3.8,3.8,-,-,-,269.6,-,-,-
15,11,3,9.2,280,0,-156,455,44,10,50,58,4,10,23.2,33.2,3,-7,-21,9.2,30.2,-,-,-,255,-,-,-
15,12,5,27.6,330.2,0,-99,410.2,6,12,60,49,4,8,19.6,27.6,0,0,0,27.6,27.6,-,-,-,305.2,-,-,-
15,13,3,16.2,322.4,0,-15,345.4,33,16,80,58,4,4,23.2,27.2,2,-3,-9,16.2,25.2,-,-,-,297.4,-,-,-
15,14,1,29,273.8,0,-18,352.8,86,18,90,70,4,2,28,30,1,0,0,29,29,-,-,-,248.8,-,-,-
15,15,4,12.8,329.4,0,-117,424.4,3,10,50,37,4,10,14.8,24.8,0,-4,-12,12.8,24.8,-,-,-,304.4,-,-,-
15,16,4,2.8,331.4,0,-138,444.4,0,2,10,37,4,18,14.8,32.8,0,-10,-30,2.8,32.8,-,-,-,306.4,-,-,-
15,17,2,29,368.4,0,-9,371.4,19,15,75,60,4,5,24,29,0,0,0,29,29,-,-,-,343.4,-,-,-
15,18,1,31,318.4,0,-15,347.4,39,17,85,70,4,3,28,31,0,0,0,31,31,-,-,-,293.4,-,-,-
15,19,6,14.8,274.4,0,-201,452.4,2,4,20,42,4,16,16.8,32.8,0,-6,-18,14.8,32.8,-,-,-,249.4,-,-,-
15,20,2,29,378.6,0,-30,401.6,18,15,75,60,4,5,24,29,0,0,0,29,29,-,-,-,353.6,-,-,-
15,21,2,30,380.6,0,-24,398.6,19,14,70,60,4,6,24,30,0,0,0,30,30,-,-,-,355.6,-,-,-
15,22,1,30,365.4,0,-6,361.4,15,15,75,70,4,5,28,33,0,-1,-3,30,33,-,-,-,340.4,-,-,-
15,23,5,29.6,248.2,0,-258,481.2,0,10,50,49,4,10,19.6,29.6,0,0,0,29.6,29.6,-,-,-,223.2,-,-,-
15,24,3,16.2,313.4,0,-102,412.4,22,12,60,58,4,8,23.2,31.2,0,-5,-15,16.2,31.2,-,-,-,288.4,-,-,-
16,1,1,22.2,393.6,0,-15,383.6,0,15,75,43,4,5,17.2,22.2,0,0,0,22.2,22.2,-,-,-,368.6,-,-,-
16,2,5,23.2,347.4,0,-75,444.4,47,12,60,53,4,8,21.2,29.2,0,-2,-6,23.2,29.2,-,-,-,322.4,-,-,-
16,3,4,25,352,0,-75,439,37,10,50,45,4,10,18,28,0,-1,-3,25,28,-,-,-,327,-,-,-
16,4,1,25.2,355.2,0,-57,410.2,23,12,60,43,4,8,17.2,25.2,0,0,0,25.2,25.2,-,-,-,330.2,-,-,-
16,5,3,25.2,337,0,-162,482,8,10,50,53,4,10,21.2,31.2,0,-2,-6,25.2,31.2,-,-,-,312,-,-,-
16,6,2,25.2,406,0,-108,489,0,12,60,58,4,8,23.2,31.2,0,-2,-6,25.2,31.2,-,-,-,381,-,-,-
16,7,6,10.8,259,0,-291,525,0,10,50,62,4,10,24.8,34.8,0,-8,-24,10.8,34.8,-,-,-,234,-,-,-
16,8,5,25.2,352.6,0,-12,339.6,0,16,80,53,4,4,21.2,25.2,0,0,0,25.2,25.2,-,-,-,327.6,-,-,-
16,9,6,15.8,215.2,0,-6,349.2,153,20,100,62,4,0,24.8,24.8,9,0,0,15.8,15.8,-,-,-,190.2,-,-,-
16,10,5,20.2,314.8,0,-24,410.8,97,15,75,53,4,5,21.2,26.2,6,0,0,20.2,20.2,-,-,-,289.8,-,-,-
16,11,5,19.2,299.2,0,-168,486.2,44,10,50,53,4,10,21.2,31.2,0,-4,-12,19.2,31.2,-,-,-,274.2,-,-,-
16,12,3,27.2,357.4,0,-102,440.4,6,11,55,53,4,9,21.2,30.2,0,-1,-3,27.2,30.2,-,-,-,332.4,-,-,-
16,13,6,20.8,343.2,0,-21,374.2,35,16,80,62,4,4,24.8,28.8,2,-2,-6,20.8,26.8,-,-,-,318.2,-,-,-
16,14,2,17.2,291,0,-18,376,92,20,100,58,4,0,23.2,23.2,6,0,0,17.2,17.2,-,-,-,266,-,-,-
16,15,4,25,354.4,0,-120,452.4,3,10,50,45,4,10,18,28,0,-1,-3,25,28,-,-,-,329.4,-,-,-
16,16,4,25,356.4,0,-141,472.4,0,10,50,45,4,10,18,28,0,-1,-3,25,28,-,-,-,331.4,-,-,-
16,17,3,25.2,393.6,0,-9,397.6,20,15,75,53,4,5,21.2,26.2,1,0,0,25.2,25.2,-,-,-,368.6,-,-,-
16,18,3,22.2,340.6,0,-15,371.6,41,17,85,53,4,3,21.2,24.2,2,0,0,22.2,22.2,-,-,-,315.6,-,-,-
16,19,1,26.2,300.6,0,-207,484.6,2,5,25,43,4,15,17.2,32.2,0,-2,-6,26.2,32.2,-,-,-,275.6,-,-,-
16,20,4,20,398.6,0,-30,424.6,21,15,75,45,4,5,18,23,3,0,0,20,20,-,-,-,373.6,-,-,-
16,21,6,21.8,402.4,0,-30,427.4,20,16,80,62,4,4,24.8,28.8,1,-2,-6,21.8,27.8,-,-,-,377.4,-,-,-
16,22,2,24.2,389.6,0,-9,388.6,15,16,80,58,4,4,23.2,27.2,0,-1,-3,24.2,27.2,-,-,-,364.6,-,-,-
16,23,2,24.2,272.4,0,-267,514.4,0,10,50,58,4,10,23.2,33.2,0,-3,-9,24.2,33.2,-,-,-,247.4,-,-,-
16,24,1,24.2,337.6,0,-102,438.6,24,11,55,43,4,9,17.2,26.2,2,0,0,24.2,24.2,-,-,-,312.6,-,-,-
17,1,5,25.4,419,0,-15,409,0,15,75,51,4,5,20.4,25.4,0,0,0,25.4,25.4,-,-,-,394,-,-,-
17,2,1,26,373.4,0,-78,473.4,47,13,65,55,4,7,22,29,0,-1,-3,26,29,-,-,-,348.4,-,-,-
17,3,6,26.2,378.2,0,-78,468.2,37,10,50,48,4,10,19.2,29.2,0,-1,-3,26.2,29.2,-,-,-,353.2,-,-,-
17,4,4,23.2,378.4,0,-63,439.4,23,10,50,48,4,10,19.2,29.2,0,-2,-6,23.2,29.2,-,-,-,353.4,-,-,-
17,5,6,26.2,363.2,0,-165,511.2,8,10,50,48,4,10,19.2,29.2,0,-1,-3,26.2,29.2,-,-,-,338.2,-,-,-
17,6,1,27,433,0,-111,519,0,12,60,55,4,8,22,30,0,-1,-3,27,30,-,-,-,408,-,-,-
17,7,1,24,283,0,-291,552,3,15,75,55,4,5,22,27,3,0,0,24,24,-,-,-,258,-,-,-
17,8,3,22.4,375,0,-18,368,0,16,80,61,4,4,24.4,28.4,0,-2,-6,22.4,28.4,-,-,-,350,-,-,-
17,9,3,15.4,230.6,0,-6,373.6,162,20,100,61,4,0,24.4,24.4,9,0,0,15.4,15.4,-,-,-,205.6,-,-,-
17,10,3,19.4,334.2,0,-30,440.2,101,15,75,61,4,5,24.4,29.4,4,-2,-6,19.4,25.4,-,-,-,309.2,-,-,-
17,11,3,7.4,306.6,0,-195,520.6,44,10,50,61,4,10,24.4,34.4,0,-9,-27,7.4,34.4,-,-,-,281.6,-,-,-
17,12,2,29.6,387,0,-105,473,6,11,55,59,4,9,23.6,32.6,0,-1,-3,29.6,32.6,-,-,-,362,-,-,-
17,13,6,17.2,360.4,0,-21,395.4,39,18,90,48,4,2,19.2,21.2,4,0,0,17.2,17.2,-,-,-,335.4,-,-,-
17,14,4,12.2,303.2,0,-18,395.2,99,20,100,48,4,0,19.2,19.2,7,0,0,12.2,12.2,-,-,-,278.2,-,-,-
17,15,6,23.2,377.6,0,-126,481.6,3,10,50,48,4,10,19.2,29.2,0,-2,-6,23.2,29.2,-,-,-,352.6,-,-,-
17,16,2,28.6,385,0,-141,501,0,15,75,59,4,5,23.6,28.6,0,0,0,28.6,28.6,-,-,-,360,-,-,-
17,17,5,24.4,418,0,-9,423,21,15,75,51,4,5,20.4,25.4,1,0,0,24.4,24.4,-,-,-,393,-,-,-
17,18,2,25.6,366.2,0,-15,398.2,42,17,85,59,4,3,23.6,26.6,1,0,0,25.6,25.6,-,-,-,341.2,-,-,-
17,19,4,13.2,313.8,0,-231,521.8,2,2,10,48,4,18,19.2,37.2,0,-8,-24,13.2,37.2,-,-,-,288.8,-,-,-
17,20,1,24,422.6,0,-33,451.6,21,15,75,55,4,5,22,27,0,-1,-3,24,27,-,-,-,397.6,-,-,-
17,21,4,20.2,422.6,0,-30,450.6,23,16,80,48,4,4,19.2,23.2,3,0,0,20.2,20.2,-,-,-,397.6,-,-,-
17,22,2,27.6,417.2,0,-9,416.2,15,16,80,59,4,4,23.6,27.6,0,0,0,27.6,27.6,-,-,-,392.2,-,-,-
17,23,5,27.4,299.8,0,-270,544.8,0,10,50,51,4,10,20.4,30.4,0,-1,-3,27.4,30.4,-,-,-,274.8,-,-,-
17,24,5,29.4,367,0,-102,468,24,11,55,51,4,9,20.4,29.4,0,0,0,29.4,29.4,-,-,-,342,-,-,-
18,1,3,24.2,443.2,0,-15,433.2,0,15,75,48,4,5,19.2,24.2,0,0,0,24.2,24.2,-,-,-,418.2,-,-,-
18,2,2,26.8,400.2,0,-78,500.2,47,12,60,47,4,8,18.8,26.8,0,0,0,26.8,26.8,-,-,-,375.2,-,-,-
18,3,2,26.8,405,0,-78,495,37,12,60,47,4,8,18.8,26.8,0,0,0,26.8,26.8,-,-,-,380,-,-,-
18,4,6,29,407.4,0,-66,471.4,23,10,50,55,4,10,22,32,0,-1,-3,29,32,-,-,-,382.4,-,-,-
18,5,3,29.2,392.4,0,-165,540.4,8,10,50,48,4,10,19.2,29.2,0,0,0,29.2,29.2,-,-,-,367.4,-,-,-
18,6,2,26.8,459.8,0,-111,545.8,0,12,60,47,4,8,18.8,26.8,0,0,0,26.8,26.8,-,-,-,434.8,-,-,-
18,7,5,17,300,0,-306,584,3,10,50,55,4,10,22,32,0,-5,-15,17,32,-,-,-,275,-,-,-
18,8,3,23.2,398.2,0,-18,391.2,0,16,80,48,4,4,19.2,23.2,0,0,0,23.2,23.2,-,-,-,373.2,-,-,-
18,9,5,9,239.6,0,-6,395.6,175,20,100,55,4,0,22,22,13,0,0,9,9,-,-,-,214.6,-,-,-
18,10,1,23.2,357.4,0,-33,470.4,105,15,75,63,4,5,25.2,30.2,4,-1,-3,23.2,26.2,-,-,-,332.4,-,-,-
18,11,2,27.8,334.4,0,-195,548.4,44,11,55,47,4,9,18.8,27.8,0,0,0,27.8,27.8,-,-,-,309.4,-,-,-
18,12,6,30,417,0,-105,503,6,12,60,55,4,8,22,30,0,0,0,30,30,-,-,-,392,-,-,-
18,13,4,25.6,386,0,-21,422,40,17,85,59,4,3,23.6,26.6,1,0,0,25.6,25.6,-,-,-,361,-,-,-
18,14,1,24.2,327.4,0,-18,422.4,102,18,90,63,4,2,25.2,27.2,3,0,0,24.2,24.2,-,-,-,302.4,-,-,-
18,15,5,17,394.6,0,-141,513.6,3,10,50,55,4,10,22,32,0,-5,-15,17,32,-,-,-,369.6,-,-,-
18,16,1,25.2,410.2,0,-141,526.2,0,20,100,63,4,0,25.2,25.2,0,0,0,25.2,25.2,-,-,-,385.2,-,-,-
18,17,4,28.6,446.6,0,-9,451.6,21,15,75,59,4,5,23.6,28.6,0,0,0,28.6,28.6,-,-,-,421.6,-,-,-
18,18,6,24,390.2,0,-15,423.2,43,17,85,55,4,3,22,25,1,0,0,24,24,-,-,-,365.2,-,-,-
18,19,3,32.2,346,0,-231,554,2,7,35,48,4,13,19.2,32.2,0,0,0,32.2,32.2,-,-,-,321,-,-,-
18,20,5,18,440.6,0,-42,478.6,21,15,75,55,4,5,22,27,0,-3,-9,18,27,-,-,-,415.6,-,-,-
18,21,4,26.6,449.2,0,-30,478.2,24,16,80,59,4,4,23.6,27.6,1,0,0,26.6,26.6,-,-,-,424.2,-,-,-
18,22,6,26,443.2,0,-9,442.2,15,16,80,55,4,4,22,26,0,0,0,26,26,-,-,-,418.2,-,-,-
18,23,1,17.2,317,0,-288,580,0,10,50,63,4,10,25.2,35.2,0,-6,-18,17.2,35.2,-,-,-,292,-,-,-
18,24,4,26.6,393.6,0,-108,500.6,24,11,55,59,4,9,23.6,32.6,0,-2,-6,26.6,32.6,-,-,-,368.6,-,-,-
19,1,6,18.6,461.8,0,-15,451.8,0,15,75,34,4,5,13.6,18.6,0,0,0,18.6,18.6,-,-,-,436.8,-,-,-
19,2,2,29.6,429.8,0,-78,529.8,47,12,60,54,4,8,21.6,29.6,0,0,0,29.6,29.6,-,-,-,404.8,-,-,-
19,3,4,25.4,430.4,0,-81,523.4,37,12,60,51,4,8,20.4,28.4,0,-1,-3,25.4,28.4,-,-,-,405.4,-,-,-
19,4,5,25.4,432.8,0,-66,496.8,23,15,75,51,4,5,20.4,25.4,0,0,0,25.4,25.4,-,-,-,407.8,-,-,-
19,5,3,15.4,407.8,0,-180,570.8,8,10,50,51,4,10,20.4,30.4,0,-5,-15,15.4,30.4,-,-,-,382.8,-,-,-
19,6,4,25.4,485.2,0,-114,574.2,0,12,60,51,4,8,20.4,28.4,0,-1,-3,25.4,28.4,-,-,-,460.2,-,-,-
19,7,5,29.4,329.4,0,-306,614.4,4,10,50,51,4,10,20.4,30.4,1,0,0,29.4,29.4,-,-,-,304.4,-,-,-
19,8,1,21.4,419.6,0,-30,424.6,0,15,75,71,4,5,28.4,33.4,0,-4,-12,21.4,33.4,-,-,-,394.6,-,-,-
19,9,1,23.4,263,0,-6,424,180,20,100,71,4,0,28.4,28.4,5,0,0,23.4,23.4,-,-,-,238,-,-,-
19,10,3,18.4,375.8,0,-33,495.8,112,15,75,51,4,5,20.4,25.4,7,0,0,18.4,18.4,-,-,-,350.8,-,-,-
19,11,5,27.4,361.8,0,-198,578.8,44,10,50,51,4,10,20.4,30.4,0,-1,-3,27.4,30.4,-,-,-,336.8,-,-,-
19,12,6,16.6,433.6,0,-105,522.6,9,14,70,34,4,6,13.6,19.6,3,0,0,16.6,16.6,-,-,-,408.6,-,-,-
19,13,4,19.4,405.4,0,-21,445.4,44,17,85,51,4,3,20.4,23.4,4,0,0,19.4,19.4,-,-,-,380.4,-,-,-
19,14,1,26.4,353.8,0,-18,450.8,104,20,100,71,4,0,28.4,28.4,2,0,0,26.4,26.4,-,-,-,328.8,-,-,-
19,15,4,24.4,419,0,-147,544,3,10,50,51,4,10,20.4,30.4,0,-2,-6,24.4,30.4,-,-,-,394,-,-,-
19,16,6,27.6,437.8,0,-147,559.8,0,0,0,34,4,20,13.6,33.6,0,-2,-6,27.6,33.6,-,-,-,412.8,-,-,-
19,17,3,24.4,471,0,-9,477,22,15,75,51,4,5,20.4,25.4,1,0,0,24.4,24.4,-,-,-,446,-,-,-
19,18,2,23.6,413.8,0,-15,447.8,44,17,85,54,4,3,21.6,24.6,1,0,0,23.6,23.6,-,-,-,388.8,-,-,-
19,19,6,25.6,371.6,0,-234,582.6,2,5,25,34,4,15,13.6,28.6,0,-1,-3,25.6,28.6,-,-,-,346.6,-,-,-
19,20,2,24.6,465.2,0,-42,505.2,23,15,75,54,4,5,21.6,26.6,2,0,0,24.6,24.6,-,-,-,440.2,-,-,-
19,21,1,23.4,472.6,0,-39,510.6,24,16,80,71,4,4,28.4,32.4,0,-3,-9,23.4,32.4,-,-,-,447.6,-,-,-
19,22,5,24.4,467.6,0,-9,466.6,15,16,80,51,4,4,20.4,24.4,0,0,0,24.4,24.4,-,-,-,442.6,-,-,-
19,23,2,22.6,339.6,0,-297,611.6,0,10,50,54,4,10,21.6,31.6,0,-3,-9,22.6,31.6,-,-,-,314.6,-,-,-
19,24,3,20.4,414,0,-117,530,24,11,55,51,4,9,20.4,29.4,0,-3,-9,20.4,29.4,-,-,-,389,-,-,-
20,1,5,25,486.8,1,-15,476.8,0,15,75,50,4,5,20,25,0,0,0,25,25,-,-,-,461.8,0,0,0
20,2,6,11.6,441.4,1,-90,557.4,51,14,70,54,4,6,21.6,27.6,4,-4,-12,11.6,23.6,-,-,-,416.4,13,10,18
20,3,4,26.4,456.8,1,-81,549.8,37,12,60,46,4,8,18.4,26.4,0,0,0,26.4,26.4,-,-,-,431.8,15,12,45
20,4,5,30,462.8,1,-66,526.8,23,10,50,50,4,10,20,30,0,0,0,30,30,-,-,-,437.8,10,10,10
20,5,6,10.6,418.4,1,-201,602.4,8,10,50,54,4,10,21.6,31.6,0,-7,-21,10.6,31.6,-,-,-,393.4,50,40,75
20,6,3,21.6,506.8,1,-114,597.8,2,12,60,39,4,8,15.6,23.6,2,0,0,21.6,21.6,-,-,-,481.8,10,8,12
20,7,2,14.8,344.2,1,-324,647.2,4,10,50,57,4,10,22.8,32.8,0,-6,-18,14.8,32.8,-,-,-,319.2,100,80,120
20,8,5,25,444.6,1,-30,449.6,0,15,75,50,4,5,20,25,0,0,0,25,25,-,-,-,419.6,5,3,8
20,9,6,7.6,270.6,1,-6,445.6,194,20,100,54,4,0,21.6,21.6,14,0,0,7.6,7.6,-,-,-,245.6,0,0,0
20,10,2,22.8,398.6,1,-33,523.6,117,15,75,57,4,5,22.8,27.8,5,0,0,22.8,22.8,-,-,-,373.6,12,9,15
20,11,1,24.4,386.2,1,-204,609.2,44,12,60,56,4,8,22.4,30.4,0,-2,-6,24.4,30.4,-,-,-,361.2,90,90,120
20,12,3,21.6,455.2,1,-105,546.2,11,12,60,39,4,8,15.6,23.6,2,0,0,21.6,21.6,-,-,-,430.2,35,30,50
20,13,1,24.4,429.8,1,-21,471.8,46,16,80,56,4,4,22.4,26.4,2,0,0,24.4,24.4,-,-,-,404.8,1,0,2
20,14,4,12.4,366.2,1,-18,471.2,112,18,90,46,4,2,18.4,20.4,8,0,0,12.4,12.4,-,-,-,341.2,8,4,14
20,15,6,10.6,429.6,1,-168,575.6,3,10,50,54,4,10,21.6,31.6,0,-7,-21,10.6,31.6,-,-,-,404.6,65,60,70
20,16,3,5.6,443.4,1,-177,595.4,0,0,0,39,4,20,15.6,35.6,0,-10,-30,5.6,35.6,-,-,-,418.4,0,0,0
20,17,4,20.4,491.4,1,-9,500.4,25,15,75,46,4,5,18.4,23.4,3,0,0,20.4,20.4,-,-,-,466.4,1,0,2
20,18,1,23.4,437.2,1,-15,473.2,46,17,85,56,4,3,22.4,25.4,2,0,0,23.4,23.4,-,-,-,412.2,2,1,4
20,19,4,4.4,376,1,-267,620,2,1,5,46,4,19,18.4,37.4,0,-11,-33,4.4,37.4,-,-,-,351,5,4,3
20,20,3,14.6,479.8,1,-42,525.8,29,15,75,39,4,5,15.6,20.6,6,0,0,14.6,14.6,-,-,-,454.8,5,3,7
20,21,2,25.8,498.4,1,-39,537.4,25,16,80,57,4,4,22.8,26.8,1,0,0,25.8,25.8,-,-,-,473.4,15,12,15
20,22,2,26.8,494.4,1,-9,493.4,15,16,80,57,4,4,22.8,26.8,0,0,0,26.8,26.8,-,-,-,469.4,0,0,0
20,23,5,30,369.6,1,-297,641.6,0,10,50,50,4,10,20,30,0,0,0,30,30,-,-,-,344.6,10,10,50
20,24,1,25.4,439.4,1,-123,561.4,24,11,55,56,4,9,22.4,31.4,0,-2,-6,25.4,31.4,-,-,-,414.4,20,15,25
